subj,session,trial,rt,object_response,category,condition,imagename
subject-07,1,1,NaN,na,car,0,0001_stg_s07_0_car_00_car4-clock1.png
subject-07,1,2,0.840924024581909,elephant,elephant,0,0002_stg_s07_0_elephant_00_elephant4-oven1.png
subject-07,1,3,1.12308406829834,bear,bear,0,0003_stg_s07_0_bear_00_bear9-dog1.png
subject-07,1,4,1.13753700256348,knife,bicycle,0,0004_stg_s07_0_bicycle_00_bicycle4-chair2.png
subject-07,1,5,1.06185603141785,cat,knife,0,0005_stg_s07_0_knife_00_knife5-dog1.png
subject-07,1,6,0.755620956420898,truck,truck,0,0006_stg_s07_0_truck_00_truck3-bird2.png
subject-07,1,7,0.671653985977173,oven,oven,0,0007_stg_s07_0_oven_00_oven9-bird3.png
subject-07,1,8,1.03081607818604,elephant,elephant,0,0008_stg_s07_0_elephant_00_elephant9-chair2.png
subject-07,1,9,1.5005898475647,car,car,0,0009_stg_s07_0_car_00_car4-car2.png
subject-07,1,10,NaN,na,keyboard,0,0010_stg_s07_0_keyboard_00_keyboard10-oven3.png
subject-07,1,11,1.01045703887939,knife,knife,0,0011_stg_s07_0_knife_00_knife2-bear2.png
subject-07,1,12,NaN,na,clock,0,0012_stg_s07_0_clock_00_clock6-clock2.png
subject-07,1,13,0.847711086273193,bird,bicycle,0,0013_stg_s07_0_bicycle_00_bicycle5-chair2.png
subject-07,1,14,1.00118494033813,truck,car,0,0014_stg_s07_0_car_00_car1-car2.png
subject-07,1,15,1.02260494232178,cat,boat,0,0015_stg_s07_0_boat_00_boat6-cat1.png
subject-07,1,16,1.43637299537659,clock,bird,0,0016_stg_s07_0_bird_00_bird1-clock3.png
subject-07,1,17,1.42802619934082,oven,clock,0,0017_stg_s07_0_clock_00_clock1-boat3.png
subject-07,1,18,0.779745101928711,clock,clock,0,0018_stg_s07_0_clock_00_clock2-bottle3.png
subject-07,1,19,0.672062158584595,keyboard,keyboard,0,0019_stg_s07_0_keyboard_00_keyboard8-keyboard2.png
subject-07,1,20,0.989713907241821,bottle,clock,0,0020_stg_s07_0_clock_00_clock8-oven3.png
subject-07,1,21,1.44926500320435,oven,knife,0,0021_stg_s07_0_knife_00_knife8-boat1.png
subject-07,1,22,1.33866500854492,boat,car,0,0022_stg_s07_0_car_00_car6-bicycle3.png
subject-07,1,23,NaN,na,bird,0,0023_stg_s07_0_bird_00_bird2-car3.png
subject-07,1,24,0.873783826828003,truck,boat,0,0024_stg_s07_0_boat_00_boat4-chair2.png
subject-07,1,25,NaN,na,bear,0,0025_stg_s07_0_bear_00_bear4-cat3.png
subject-07,1,26,1.23325991630554,bird,bird,0,0026_stg_s07_0_bird_00_bird9-bicycle3.png
subject-07,1,27,1.05557513237,airplane,keyboard,0,0027_stg_s07_0_keyboard_00_keyboard8-airplane2.png
subject-07,1,28,0.853077173233032,cat,elephant,0,0028_stg_s07_0_elephant_00_elephant3-keyboard2.png
subject-07,1,29,0.836544036865234,knife,boat,0,0029_stg_s07_0_boat_00_boat7-oven3.png
subject-07,1,30,NaN,na,car,0,0030_stg_s07_0_car_00_car7-boat3.png
subject-07,1,31,1.16415190696716,bird,dog,0,0031_stg_s07_0_dog_00_dog1-cat3.png
subject-07,1,32,0.932477951049805,bottle,chair,0,0032_stg_s07_0_chair_00_chair1-airplane2.png
subject-07,1,33,NaN,na,dog,0,0033_stg_s07_0_dog_00_dog9-airplane3.png
subject-07,1,34,0.889630079269409,car,chair,0,0034_stg_s07_0_chair_00_chair5-keyboard2.png
subject-07,1,35,1.01982498168945,cat,keyboard,0,0035_stg_s07_0_keyboard_00_keyboard5-bear3.png
subject-07,1,36,1.01928210258484,chair,bottle,0,0036_stg_s07_0_bottle_00_bottle9-bicycle1.png
subject-07,1,37,0.816767930984497,bear,dog,0,0037_stg_s07_0_dog_00_dog4-cat3.png
subject-07,1,38,1.35487198829651,oven,car,0,0038_stg_s07_0_car_00_car6-truck3.png
subject-07,1,39,0.892623901367188,oven,truck,0,0039_stg_s07_0_truck_00_truck3-car3.png
subject-07,1,40,NaN,na,clock,0,0040_stg_s07_0_clock_00_clock7-bear2.png
subject-07,1,41,NaN,na,truck,0,0041_stg_s07_0_truck_00_truck4-airplane3.png
subject-07,1,42,0.880753993988037,bird,bird,0,0042_stg_s07_0_bird_00_bird10-cat1.png
subject-07,1,43,0.882243871688843,knife,keyboard,0,0043_stg_s07_0_keyboard_00_keyboard1-clock1.png
subject-07,1,44,0.625778913497925,boat,car,0,0044_stg_s07_0_car_00_car2-bird3.png
subject-07,1,45,0.563499212265015,cat,car,0,0045_stg_s07_0_car_00_car9-knife1.png
subject-07,1,46,1.13122081756592,elephant,boat,0,0046_stg_s07_0_boat_00_boat1-elephant3.png
subject-07,1,47,1.26141119003296,bear,bear,0,0047_stg_s07_0_bear_00_bear8-elephant2.png
subject-07,1,48,1.2518208026886,oven,dog,0,0048_stg_s07_0_dog_00_dog9-bicycle3.png
subject-07,1,49,0.868058919906616,cat,boat,0,0049_stg_s07_0_boat_00_boat3-cat3.png
subject-07,1,50,NaN,na,knife,0,0050_stg_s07_0_knife_00_knife2-dog1.png
subject-07,1,51,0.716077089309692,bicycle,bicycle,0,0051_stg_s07_0_bicycle_00_bicycle7-clock3.png
subject-07,1,52,0.930342197418213,cat,bird,0,0052_stg_s07_0_bird_00_bird6-oven1.png
subject-07,1,53,0.727550029754639,bird,bear,0,0053_stg_s07_0_bear_00_bear4-knife1.png
subject-07,1,54,0.779396057128906,car,keyboard,0,0054_stg_s07_0_keyboard_00_keyboard4-bird1.png
subject-07,1,55,0.831792116165161,truck,cat,0,0055_stg_s07_0_cat_00_cat4-clock2.png
subject-07,1,56,0.653648138046265,elephant,elephant,0,0056_stg_s07_0_elephant_00_elephant9-dog3.png
subject-07,1,57,NaN,na,bird,0,0057_stg_s07_0_bird_00_bird6-car3.png
subject-07,1,58,0.850441217422485,oven,bicycle,0,0058_stg_s07_0_bicycle_00_bicycle1-oven1.png
subject-07,1,59,1.06256103515625,airplane,clock,0,0059_stg_s07_0_clock_00_clock6-car2.png
subject-07,1,60,1.07929301261902,keyboard,dog,0,0060_stg_s07_0_dog_00_dog6-truck2.png
subject-07,1,61,0.723440170288086,bird,clock,0,0061_stg_s07_0_clock_00_clock4-bird3.png
subject-07,1,62,0.653187036514282,clock,clock,0,0062_stg_s07_0_clock_00_clock9-keyboard2.png
subject-07,1,63,1.44536399841309,bottle,bear,0,0063_stg_s07_0_bear_00_bear8-bottle1.png
subject-07,1,64,0.858946084976196,boat,oven,0,0064_stg_s07_0_oven_00_oven7-oven1.png
subject-07,1,65,0.994873046875,bicycle,boat,0,0065_stg_s07_0_boat_00_boat8-oven1.png
subject-07,1,66,1.04612612724304,bicycle,knife,0,0066_stg_s07_0_knife_00_knife4-airplane3.png
subject-07,1,67,NaN,na,bicycle,0,0067_stg_s07_0_bicycle_00_bicycle9-bottle1.png
subject-07,1,68,0.705913782119751,bottle,bicycle,0,0068_stg_s07_0_bicycle_00_bicycle10-clock2.png
subject-07,1,69,0.790343999862671,oven,boat,0,0069_stg_s07_0_boat_00_boat3-airplane2.png
subject-07,1,70,0.704275846481323,bottle,bottle,0,0070_stg_s07_0_bottle_00_bottle8-bird1.png
subject-07,1,71,0.673171997070312,boat,cat,0,0071_stg_s07_0_cat_00_cat8-car2.png
subject-07,1,72,0.887413024902344,elephant,elephant,0,0072_stg_s07_0_elephant_00_elephant4-chair3.png
subject-07,1,73,NaN,na,airplane,0,0073_stg_s07_0_airplane_00_airplane6-chair3.png
subject-07,1,74,1.10659790039062,truck,bicycle,0,0074_stg_s07_0_bicycle_00_bicycle1-airplane2.png
subject-07,1,75,NaN,na,airplane,0,0075_stg_s07_0_airplane_00_airplane8-bicycle3.png
subject-07,1,76,0.849869012832642,bird,keyboard,0,0076_stg_s07_0_keyboard_00_keyboard6-car2.png
subject-07,1,77,0.869155883789062,car,bird,0,0077_stg_s07_0_bird_00_bird7-boat1.png
subject-07,1,78,0.882633924484253,bottle,bottle,0,0078_stg_s07_0_bottle_00_bottle6-airplane1.png
subject-07,1,79,0.964737892150879,clock,clock,0,0079_stg_s07_0_clock_00_clock7-cat2.png
subject-07,1,80,0.840744972229004,airplane,car,0,0080_stg_s07_0_car_00_car10-elephant2.png
subject-07,1,81,1.44615983963013,bottle,bottle,0,0081_stg_s07_0_bottle_00_bottle7-keyboard2.png
subject-07,1,82,0.83881402015686,bottle,chair,0,0082_stg_s07_0_chair_00_chair9-boat2.png
subject-07,1,83,0.93635082244873,bear,oven,0,0083_stg_s07_0_oven_00_oven4-dog1.png
subject-07,1,84,1.22819495201111,chair,cat,0,0084_stg_s07_0_cat_00_cat4-airplane1.png
subject-07,1,85,0.81198787689209,elephant,elephant,0,0085_stg_s07_0_elephant_00_elephant3-cat2.png
subject-07,1,86,1.13955807685852,boat,cat,0,0086_stg_s07_0_cat_00_cat1-airplane1.png
subject-07,1,87,0.80768895149231,bottle,bear,0,0087_stg_s07_0_bear_00_bear9-bottle2.png
subject-07,1,88,0.90753698348999,bottle,cat,0,0088_stg_s07_0_cat_00_cat10-bicycle1.png
subject-07,1,89,1.43562602996826,dog,bear,0,0089_stg_s07_0_bear_00_bear3-cat1.png
subject-07,1,90,1.50002908706665,oven,chair,0,0090_stg_s07_0_chair_00_chair8-boat1.png
subject-07,1,91,0.795773029327393,clock,knife,0,0091_stg_s07_0_knife_00_knife2-bird1.png
subject-07,1,92,1.00916719436646,bicycle,chair,0,0092_stg_s07_0_chair_00_chair1-truck3.png
subject-07,1,93,1.18306708335876,bird,elephant,0,0093_stg_s07_0_elephant_00_elephant5-bicycle3.png
subject-07,1,94,1.23504900932312,bottle,keyboard,0,0094_stg_s07_0_keyboard_00_keyboard6-bottle2.png
subject-07,1,95,0.858870983123779,bird,bird,0,0095_stg_s07_0_bird_00_bird1-boat1.png
subject-07,1,96,0.819350957870483,bear,airplane,0,0096_stg_s07_0_airplane_00_airplane5-bird2.png
subject-07,1,97,0.703628063201904,elephant,bottle,0,0097_stg_s07_0_bottle_00_bottle7-elephant2.png
subject-07,1,98,1.2636079788208,boat,clock,0,0098_stg_s07_0_clock_00_clock2-bicycle1.png
subject-07,1,99,0.731456995010376,cat,bear,0,0099_stg_s07_0_bear_00_bear7-truck1.png
subject-07,1,100,0.837490081787109,bird,oven,0,0100_stg_s07_0_oven_00_oven10-bear1.png
subject-07,1,101,0.875185966491699,elephant,elephant,0,0101_stg_s07_0_elephant_00_elephant8-elephant1.png
subject-07,1,102,1.14115190505981,bicycle,truck,0,0102_stg_s07_0_truck_00_truck5-car1.png
subject-07,1,103,0.87816596031189,oven,airplane,0,0103_stg_s07_0_airplane_00_airplane10-boat3.png
subject-07,1,104,0.838325977325439,chair,bicycle,0,0104_stg_s07_0_bicycle_00_bicycle7-oven1.png
subject-07,1,105,1.08989715576172,chair,bicycle,0,0105_stg_s07_0_bicycle_00_bicycle4-knife3.png
subject-07,1,106,0.871353149414062,bear,dog,0,0106_stg_s07_0_dog_00_dog3-clock1.png
subject-07,1,107,1.01752400398254,bottle,truck,0,0107_stg_s07_0_truck_00_truck4-boat3.png
subject-07,1,108,NaN,na,car,0,0108_stg_s07_0_car_00_car10-bicycle2.png
subject-07,1,109,1.19944906234741,knife,cat,0,0109_stg_s07_0_cat_00_cat4-bird2.png
subject-07,1,110,1.30467295646667,bicycle,oven,0,0110_stg_s07_0_oven_00_oven3-car2.png
subject-07,1,111,1.02737021446228,cat,bottle,0,0111_stg_s07_0_bottle_00_bottle9-keyboard1.png
subject-07,1,112,0.85757303237915,bird,dog,0,0112_stg_s07_0_dog_00_dog10-dog1.png
subject-07,1,113,0.955774784088135,knife,boat,0,0113_stg_s07_0_boat_00_boat2-bottle2.png
subject-07,1,114,1.03080987930298,cat,airplane,0,0114_stg_s07_0_airplane_00_airplane10-dog3.png
subject-07,1,115,0.674721002578735,clock,clock,0,0115_stg_s07_0_clock_00_clock3-bird1.png
subject-07,1,116,0.767283916473389,chair,chair,0,0116_stg_s07_0_chair_00_chair10-bottle3.png
subject-07,1,117,1.10296106338501,oven,oven,0,0117_stg_s07_0_oven_00_oven9-chair1.png
subject-07,1,118,0.462488889694214,boat,clock,0,0118_stg_s07_0_clock_00_clock5-airplane1.png
subject-07,1,119,0.959632158279419,cat,oven,0,0119_stg_s07_0_oven_00_oven6-oven3.png
subject-07,1,120,1.23328399658203,bottle,bird,0,0120_stg_s07_0_bird_00_bird7-oven3.png
subject-07,1,121,0.925651073455811,bear,truck,0,0121_stg_s07_0_truck_00_truck4-knife1.png
subject-07,1,122,1.40247702598572,elephant,bicycle,0,0122_stg_s07_0_bicycle_00_bicycle5-dog2.png
subject-07,1,123,1.47793292999268,bird,bird,0,0123_stg_s07_0_bird_00_bird8-chair1.png
subject-07,1,124,NaN,na,bear,0,0124_stg_s07_0_bear_00_bear3-keyboard2.png
subject-07,1,125,1.01922202110291,elephant,bottle,0,0125_stg_s07_0_bottle_00_bottle9-elephant2.png
subject-07,1,126,0.865139961242676,bicycle,bicycle,0,0126_stg_s07_0_bicycle_00_bicycle4-clock3.png
subject-07,1,127,1.01744699478149,bottle,oven,0,0127_stg_s07_0_oven_00_oven10-bicycle1.png
subject-07,1,128,1.16860699653625,oven,chair,0,0128_stg_s07_0_chair_00_chair3-dog2.png
subject-07,1,129,0.936722993850708,boat,bottle,0,0129_stg_s07_0_bottle_00_bottle1-dog2.png
subject-07,1,130,1.25868320465088,knife,keyboard,0,0130_stg_s07_0_keyboard_00_keyboard3-bird3.png
subject-07,1,131,0.872470855712891,bicycle,bottle,0,0131_stg_s07_0_bottle_00_bottle3-cat3.png
subject-07,1,132,1.50036311149597,oven,cat,0,0132_stg_s07_0_cat_00_cat5-boat1.png
subject-07,1,133,1.15896201133728,bear,bear,0,0133_stg_s07_0_bear_00_bear5-bird1.png
subject-07,1,134,1.11073684692383,bottle,oven,0,0134_stg_s07_0_oven_00_oven2-chair1.png
subject-07,1,135,1.0117130279541,elephant,keyboard,0,0135_stg_s07_0_keyboard_00_keyboard6-elephant1.png
subject-07,1,136,1.0177149772644,elephant,knife,0,0136_stg_s07_0_knife_00_knife2-car3.png
subject-07,1,137,1.16020607948303,elephant,truck,0,0137_stg_s07_0_truck_00_truck6-knife2.png
subject-07,1,138,1.18832206726074,airplane,keyboard,0,0138_stg_s07_0_keyboard_00_keyboard5-dog3.png
subject-07,1,139,1.50019788742065,knife,elephant,0,0139_stg_s07_0_elephant_00_elephant10-knife3.png
subject-07,1,140,1.27770590782166,airplane,dog,0,0140_stg_s07_0_dog_00_dog3-bird2.png
subject-07,1,141,1.29173588752747,knife,elephant,0,0141_stg_s07_0_elephant_00_elephant1-car3.png
subject-07,1,142,0.930276155471802,bottle,bear,0,0142_stg_s07_0_bear_00_bear7-clock1.png
subject-07,1,143,0.995805025100708,car,bear,0,0143_stg_s07_0_bear_00_bear4-keyboard3.png
subject-07,1,144,0.812014102935791,boat,keyboard,0,0144_stg_s07_0_keyboard_00_keyboard10-airplane3.png
subject-07,1,145,1.47889995574951,car,car,0,0145_stg_s07_0_car_00_car5-airplane3.png
subject-07,1,146,NaN,na,bicycle,0,0146_stg_s07_0_bicycle_00_bicycle2-keyboard2.png
subject-07,1,147,1.00620198249817,bottle,truck,0,0147_stg_s07_0_truck_00_truck3-bicycle1.png
subject-07,1,148,0.974076986312866,bottle,chair,0,0148_stg_s07_0_chair_00_chair5-bicycle1.png
subject-07,1,149,1.00936007499695,keyboard,elephant,0,0149_stg_s07_0_elephant_00_elephant4-boat3.png
subject-07,1,150,1.50012707710266,airplane,knife,0,0150_stg_s07_0_knife_00_knife1-chair1.png
subject-07,1,151,NaN,na,bottle,0,0151_stg_s07_0_bottle_00_bottle7-truck2.png
subject-07,1,152,1.3263988494873,truck,car,0,0152_stg_s07_0_car_00_car7-airplane2.png
subject-07,1,153,1.1866250038147,cat,knife,0,0153_stg_s07_0_knife_00_knife1-clock2.png
subject-07,1,154,0.694012880325317,elephant,cat,0,0154_stg_s07_0_cat_00_cat5-elephant2.png
subject-07,1,155,1.21425580978394,keyboard,keyboard,0,0155_stg_s07_0_keyboard_00_keyboard7-boat2.png
subject-07,1,156,0.735535144805908,elephant,truck,0,0156_stg_s07_0_truck_00_truck10-elephant3.png
subject-07,1,157,0.779392004013062,boat,bicycle,0,0157_stg_s07_0_bicycle_00_bicycle1-boat3.png
subject-07,1,158,0.76230001449585,bottle,truck,0,0158_stg_s07_0_truck_00_truck9-bottle2.png
subject-07,1,159,1.00676488876343,bicycle,keyboard,0,0159_stg_s07_0_keyboard_00_keyboard10-boat2.png
subject-07,1,160,0.942527055740356,elephant,bear,0,0160_stg_s07_0_bear_00_bear9-keyboard3.png
subject-07,1,161,0.948645830154419,car,car,0,0161_stg_s07_0_car_00_car7-car1.png
subject-07,1,162,NaN,na,airplane,0,0162_stg_s07_0_airplane_00_airplane5-bicycle1.png
subject-07,1,163,1.36318612098694,bird,bicycle,0,0163_stg_s07_0_bicycle_00_bicycle9-chair1.png
subject-07,1,164,1.02899885177612,knife,clock,0,0164_stg_s07_0_clock_00_clock4-knife1.png
subject-07,1,165,1.0883309841156,truck,dog,0,0165_stg_s07_0_dog_00_dog6-bird1.png
subject-07,1,166,1.3095531463623,car,truck,0,0166_stg_s07_0_truck_00_truck2-oven3.png
subject-07,1,167,0.739073038101196,keyboard,clock,0,0167_stg_s07_0_clock_00_clock2-dog1.png
subject-07,1,168,1.50004410743713,dog,bottle,0,0168_stg_s07_0_bottle_00_bottle8-dog2.png
subject-07,1,169,NaN,na,bottle,0,0169_stg_s07_0_bottle_00_bottle5-knife1.png
subject-07,1,170,0.689149856567383,clock,oven,0,0170_stg_s07_0_oven_00_oven6-chair3.png
subject-07,1,171,0.949442148208618,keyboard,elephant,0,0171_stg_s07_0_elephant_00_elephant9-bicycle2.png
subject-07,1,172,0.723146915435791,cat,airplane,0,0172_stg_s07_0_airplane_00_airplane10-truck1.png
subject-07,1,173,1.07468700408936,car,knife,0,0173_stg_s07_0_knife_00_knife8-bicycle1.png
subject-07,1,174,0.874885082244873,bottle,oven,0,0174_stg_s07_0_oven_00_oven3-boat3.png
subject-07,1,175,NaN,na,bicycle,0,0175_stg_s07_0_bicycle_00_bicycle4-keyboard3.png
subject-07,1,176,NaN,na,bicycle,0,0176_stg_s07_0_bicycle_00_bicycle5-bear1.png
subject-07,1,177,0.963550090789795,bird,bird,0,0177_stg_s07_0_bird_00_bird1-airplane2.png
subject-07,1,178,0.660745143890381,elephant,boat,0,0178_stg_s07_0_boat_00_boat5-boat3.png
subject-07,1,179,0.966904163360596,elephant,keyboard,0,0179_stg_s07_0_keyboard_00_keyboard9-truck3.png
subject-07,1,180,0.859402894973755,cat,dog,0,0180_stg_s07_0_dog_00_dog7-bird3.png
subject-07,1,181,0.956938028335571,boat,bird,0,0181_stg_s07_0_bird_00_bird8-keyboard2.png
subject-07,1,182,NaN,na,dog,0,0182_stg_s07_0_dog_00_dog9-chair2.png
subject-07,1,183,1.21509790420532,cat,knife,0,0183_stg_s07_0_knife_00_knife7-elephant2.png
subject-07,1,184,0.796442985534668,bird,airplane,0,0184_stg_s07_0_airplane_00_airplane3-cat1.png
subject-07,1,185,1.08652877807617,airplane,bear,0,0185_stg_s07_0_bear_00_bear2-oven1.png
subject-07,1,186,1.18403697013855,oven,oven,0,0186_stg_s07_0_oven_00_oven9-keyboard1.png
subject-07,1,187,1.22423100471497,bird,boat,0,0187_stg_s07_0_boat_00_boat7-cat3.png
subject-07,1,188,0.927577972412109,bottle,oven,0,0188_stg_s07_0_oven_00_oven5-bicycle1.png
subject-07,1,189,0.70389199256897,keyboard,elephant,0,0189_stg_s07_0_elephant_00_elephant8-oven3.png
subject-07,1,190,0.765152931213379,bird,bird,0,0190_stg_s07_0_bird_00_bird7-car2.png
subject-07,1,191,1.00276207923889,elephant,cat,0,0191_stg_s07_0_cat_00_cat3-elephant2.png
subject-07,1,192,0.747344017028809,bear,elephant,0,0192_stg_s07_0_elephant_00_elephant2-bird1.png
subject-07,1,193,0.506537199020386,oven,oven,0,0193_stg_s07_0_oven_00_oven4-bicycle2.png
subject-07,1,194,0.857713937759399,cat,chair,0,0194_stg_s07_0_chair_00_chair1-clock2.png
subject-07,1,195,0.972326040267944,boat,keyboard,0,0195_stg_s07_0_keyboard_00_keyboard5-cat1.png
subject-07,1,196,0.900148868560791,bird,cat,0,0196_stg_s07_0_cat_00_cat1-boat1.png
subject-07,1,197,0.814273118972778,airplane,bear,0,0197_stg_s07_0_bear_00_bear4-oven2.png
subject-07,1,198,0.859721899032593,bicycle,clock,0,0198_stg_s07_0_clock_00_clock9-airplane1.png
subject-07,1,199,1.12553286552429,knife,car,0,0199_stg_s07_0_car_00_car3-oven3.png
subject-07,1,200,NaN,na,bottle,0,0200_stg_s07_0_bottle_00_bottle10-car1.png
subject-07,1,201,0.896228075027466,car,airplane,0,0201_stg_s07_0_airplane_00_airplane4-car1.png
subject-07,1,202,1.35685801506042,truck,chair,0,0202_stg_s07_0_chair_00_chair4-keyboard2.png
subject-07,1,203,0.800448894500732,cat,bird,0,0203_stg_s07_0_bird_00_bird1-keyboard3.png
subject-07,1,204,1.02933788299561,keyboard,bear,0,0204_stg_s07_0_bear_00_bear2-cat2.png
subject-07,1,205,0.734913110733032,oven,chair,0,0205_stg_s07_0_chair_00_chair7-knife2.png
subject-07,1,206,0.925009965896606,bicycle,bicycle,0,0206_stg_s07_0_bicycle_00_bicycle1-bicycle3.png
subject-07,1,207,0.868195056915283,bird,airplane,0,0207_stg_s07_0_airplane_00_airplane6-keyboard3.png
subject-07,1,208,0.979572057723999,airplane,elephant,0,0208_stg_s07_0_elephant_00_elephant8-bicycle3.png
subject-07,1,209,1.13143301010132,elephant,bear,0,0209_stg_s07_0_bear_00_bear2-elephant1.png
subject-07,1,210,1.4211699962616,elephant,car,0,0210_stg_s07_0_car_00_car3-elephant3.png
subject-07,1,211,0.766642093658447,bear,truck,0,0211_stg_s07_0_truck_00_truck2-car3.png
subject-07,1,212,NaN,na,airplane,0,0212_stg_s07_0_airplane_00_airplane8-oven2.png
subject-07,1,213,0.837865829467773,elephant,clock,0,0213_stg_s07_0_clock_00_clock2-elephant2.png
subject-07,1,214,0.944406986236572,elephant,dog,0,0214_stg_s07_0_dog_00_dog1-knife3.png
subject-07,1,215,0.74980902671814,elephant,dog,0,0215_stg_s07_0_dog_00_dog10-elephant1.png
subject-07,1,216,0.977635145187378,boat,car,0,0216_stg_s07_0_car_00_car7-bird3.png
subject-07,1,217,0.867122173309326,bear,keyboard,0,0217_stg_s07_0_keyboard_00_keyboard2-clock1.png
subject-07,1,218,NaN,na,car,0,0218_stg_s07_0_car_00_car5-truck3.png
subject-07,1,219,NaN,na,keyboard,0,0219_stg_s07_0_keyboard_00_keyboard1-chair2.png
subject-07,1,220,1.30685591697693,car,truck,0,0220_stg_s07_0_truck_00_truck5-cat3.png
subject-07,1,221,0.97428297996521,cat,oven,0,0221_stg_s07_0_oven_00_oven5-dog3.png
subject-07,1,222,NaN,na,dog,0,0222_stg_s07_0_dog_00_dog10-truck2.png
subject-07,1,223,0.715446949005127,elephant,dog,0,0223_stg_s07_0_dog_00_dog4-elephant2.png
subject-07,1,224,0.883250951766968,bicycle,car,0,0224_stg_s07_0_car_00_car5-oven2.png
subject-07,1,225,0.802037000656128,oven,oven,0,0225_stg_s07_0_oven_00_oven9-boat2.png
subject-07,1,226,0.816586017608643,cat,clock,0,0226_stg_s07_0_clock_00_clock9-bird2.png
subject-07,1,227,0.968645811080933,bottle,boat,0,0227_stg_s07_0_boat_00_boat10-oven1.png
subject-07,1,228,1.09028291702271,chair,clock,0,0228_stg_s07_0_clock_00_clock4-car2.png
subject-07,1,229,1.10960102081299,bicycle,oven,0,0229_stg_s07_0_oven_00_oven5-bird1.png
subject-07,1,230,0.718326807022095,oven,boat,0,0230_stg_s07_0_boat_00_boat3-keyboard2.png
subject-07,1,231,1.03270602226257,car,airplane,0,0231_stg_s07_0_airplane_00_airplane3-car1.png
subject-07,1,232,1.13903594017029,truck,airplane,0,0232_stg_s07_0_airplane_00_airplane9-truck1.png
subject-07,1,233,1.38870692253113,car,car,0,0233_stg_s07_0_car_00_car9-cat1.png
subject-07,1,234,0.705223083496094,elephant,bird,0,0234_stg_s07_0_bird_00_bird1-elephant2.png
subject-07,1,235,0.840791940689087,airplane,keyboard,0,0235_stg_s07_0_keyboard_00_keyboard5-keyboard1.png
subject-07,1,236,NaN,na,bicycle,0,0236_stg_s07_0_bicycle_00_bicycle1-dog3.png
subject-07,1,237,0.511457920074463,cat,knife,0,0237_stg_s07_0_knife_00_knife1-keyboard3.png
subject-07,1,238,0.879750967025757,bottle,knife,0,0238_stg_s07_0_knife_00_knife9-bottle2.png
subject-07,1,239,0.694319009780884,boat,knife,0,0239_stg_s07_0_knife_00_knife8-car2.png
subject-07,1,240,1.08467102050781,bear,bear,0,0240_stg_s07_0_bear_00_bear1-airplane3.png
subject-07,1,241,0.860641956329346,bird,oven,0,0241_stg_s07_0_oven_00_oven3-cat2.png
subject-07,1,242,0.988301992416382,elephant,car,0,0242_stg_s07_0_car_00_car10-dog1.png
subject-07,1,243,0.977780103683472,bottle,elephant,0,0243_stg_s07_0_elephant_00_elephant1-bottle1.png
subject-07,1,244,0.761343002319336,boat,knife,0,0244_stg_s07_0_knife_00_knife8-cat2.png
subject-07,1,245,0.643113136291504,boat,airplane,0,0245_stg_s07_0_airplane_00_airplane5-oven3.png
subject-07,1,246,0.695204019546509,cat,car,0,0246_stg_s07_0_car_00_car1-dog2.png
subject-07,1,247,0.848105907440186,bird,oven,0,0247_stg_s07_0_oven_00_oven7-cat1.png
subject-07,1,248,0.760668039321899,keyboard,oven,0,0248_stg_s07_0_oven_00_oven4-knife2.png
subject-07,1,249,1.16687297821045,cat,bottle,0,0249_stg_s07_0_bottle_00_bottle5-boat1.png
subject-07,1,250,0.86524510383606,bottle,bicycle,0,0250_stg_s07_0_bicycle_00_bicycle2-bicycle1.png
subject-07,1,251,0.711046934127808,boat,knife,0,0251_stg_s07_0_knife_00_knife5-bicycle2.png
subject-07,1,252,0.852405071258545,truck,clock,0,0252_stg_s07_0_clock_00_clock4-airplane1.png
subject-07,1,253,1.1818859577179,car,dog,0,0253_stg_s07_0_dog_00_dog8-chair3.png
subject-07,1,254,0.858213901519775,bottle,knife,0,0254_stg_s07_0_knife_00_knife6-bottle3.png
subject-07,1,255,1.07762289047241,bear,car,0,0255_stg_s07_0_car_00_car8-bear1.png
subject-07,1,256,0.745873928070068,cat,bottle,0,0256_stg_s07_0_bottle_00_bottle5-truck1.png
subject-07,1,257,0.818225145339966,boat,elephant,0,0257_stg_s07_0_elephant_00_elephant6-knife2.png
subject-07,1,258,0.826251983642578,car,boat,0,0258_stg_s07_0_boat_00_boat3-chair3.png
subject-07,1,259,1.20068407058716,keyboard,oven,0,0259_stg_s07_0_oven_00_oven10-truck2.png
subject-07,1,260,0.930640935897827,elephant,knife,0,0260_stg_s07_0_knife_00_knife9-elephant2.png
subject-07,1,261,0.766864061355591,bird,elephant,0,0261_stg_s07_0_elephant_00_elephant10-keyboard1.png
subject-07,1,262,NaN,na,keyboard,0,0262_stg_s07_0_keyboard_00_keyboard7-truck2.png
subject-07,1,263,NaN,na,car,0,0263_stg_s07_0_car_00_car10-keyboard2.png
subject-07,1,264,1.49792695045471,car,elephant,0,0264_stg_s07_0_elephant_00_elephant6-car3.png
subject-07,1,265,1.35070085525513,oven,chair,0,0265_stg_s07_0_chair_00_chair5-knife3.png
subject-07,1,266,0.796872854232788,airplane,keyboard,0,0266_stg_s07_0_keyboard_00_keyboard5-airplane3.png
subject-07,1,267,1.39289212226868,knife,bear,0,0267_stg_s07_0_bear_00_bear10-keyboard3.png
subject-07,1,268,1.1307520866394,bird,dog,0,0268_stg_s07_0_dog_00_dog8-dog3.png
subject-07,1,269,1.20466613769531,bottle,elephant,0,0269_stg_s07_0_elephant_00_elephant4-bicycle2.png
subject-07,1,270,0.70502495765686,bear,elephant,0,0270_stg_s07_0_elephant_00_elephant3-knife1.png
subject-07,1,271,NaN,na,keyboard,0,0271_stg_s07_0_keyboard_00_keyboard3-clock3.png
subject-07,1,272,0.914624929428101,bird,bear,0,0272_stg_s07_0_bear_00_bear7-dog3.png
subject-07,1,273,1.11784219741821,bottle,bicycle,0,0273_stg_s07_0_bicycle_00_bicycle4-boat1.png
subject-07,1,274,0.839481115341187,oven,car,0,0274_stg_s07_0_car_00_car4-oven2.png
subject-07,1,275,0.899086952209473,truck,boat,0,0275_stg_s07_0_boat_00_boat1-car2.png
subject-07,1,276,1.25672101974487,clock,car,0,0276_stg_s07_0_car_00_car7-keyboard3.png
subject-07,1,277,0.863161087036133,cat,cat,0,0277_stg_s07_0_cat_00_cat8-bird2.png
subject-07,1,278,0.746970891952515,bottle,dog,0,0278_stg_s07_0_dog_00_dog10-airplane1.png
subject-07,1,279,0.8367919921875,bird,chair,0,0279_stg_s07_0_chair_00_chair6-bird2.png
subject-07,1,280,NaN,na,cat,0,0280_stg_s07_0_cat_00_cat5-car2.png
subject-07,1,281,0.979148864746094,oven,knife,0,0281_stg_s07_0_knife_00_knife4-knife2.png
subject-07,1,282,0.776970863342285,bear,bear,0,0282_stg_s07_0_bear_00_bear8-bear1.png
subject-07,1,283,1.19118309020996,car,truck,0,0283_stg_s07_0_truck_00_truck3-dog3.png
subject-07,1,284,1.43268918991089,dog,chair,0,0284_stg_s07_0_chair_00_chair2-bear2.png
subject-07,1,285,1.10824704170227,bicycle,elephant,0,0285_stg_s07_0_elephant_00_elephant5-truck1.png
subject-07,1,286,1.40664386749268,knife,keyboard,0,0286_stg_s07_0_keyboard_00_keyboard9-keyboard2.png
subject-07,1,287,1.26663088798523,bottle,bear,0,0287_stg_s07_0_bear_00_bear10-bottle1.png
subject-07,1,288,1.08664202690125,cat,cat,0,0288_stg_s07_0_cat_00_cat5-knife2.png
subject-07,1,289,NaN,na,cat,0,0289_stg_s07_0_cat_00_cat7-elephant1.png
subject-07,1,290,1.05750584602356,truck,bird,0,0290_stg_s07_0_bird_00_bird2-clock3.png
subject-07,1,291,0.863487958908081,keyboard,keyboard,0,0291_stg_s07_0_keyboard_00_keyboard2-bicycle3.png
subject-07,1,292,0.807857990264893,oven,keyboard,0,0292_stg_s07_0_keyboard_00_keyboard7-chair3.png
subject-07,1,293,0.576278924942017,cat,airplane,0,0293_stg_s07_0_airplane_00_airplane4-boat3.png
subject-07,1,294,0.833808183670044,bottle,bottle,0,0294_stg_s07_0_bottle_00_bottle1-clock1.png
subject-07,1,295,0.844933986663818,bicycle,elephant,0,0295_stg_s07_0_elephant_00_elephant3-truck1.png
subject-07,1,296,1.30979895591736,car,chair,0,0296_stg_s07_0_chair_00_chair3-bicycle3.png
subject-07,1,297,0.931861877441406,oven,elephant,0,0297_stg_s07_0_elephant_00_elephant7-keyboard3.png
subject-07,1,298,0.783651113510132,chair,dog,0,0298_stg_s07_0_dog_00_dog6-clock1.png
subject-07,1,299,0.817281007766724,bicycle,cat,0,0299_stg_s07_0_cat_00_cat1-car2.png
subject-07,1,300,NaN,na,bottle,0,0300_stg_s07_0_bottle_00_bottle5-clock3.png
subject-07,1,301,0.958093881607056,truck,bear,0,0301_stg_s07_0_bear_00_bear8-truck3.png
subject-07,1,302,1.32485604286194,knife,car,0,0302_stg_s07_0_car_00_car3-truck1.png
subject-07,1,303,1.18007206916809,bird,chair,0,0303_stg_s07_0_chair_00_chair7-boat3.png
subject-07,1,304,0.899739980697632,keyboard,airplane,0,0304_stg_s07_0_airplane_00_airplane9-clock1.png
subject-07,1,305,0.838243961334229,car,bird,0,0305_stg_s07_0_bird_00_bird10-bird2.png
subject-07,1,306,NaN,na,truck,0,0306_stg_s07_0_truck_00_truck10-truck3.png
subject-07,1,307,0.993348121643066,bottle,chair,0,0307_stg_s07_0_chair_00_chair7-bottle1.png
subject-07,1,308,0.721575021743774,bear,bird,0,0308_stg_s07_0_bird_00_bird6-bottle3.png
subject-07,1,309,0.702491998672485,elephant,chair,0,0309_stg_s07_0_chair_00_chair9-elephant1.png
subject-07,1,310,1.0142560005188,car,truck,0,0310_stg_s07_0_truck_00_truck3-knife2.png
subject-07,1,311,0.728439092636108,elephant,airplane,0,0311_stg_s07_0_airplane_00_airplane3-elephant1.png
subject-07,1,312,1.31814312934875,bird,cat,0,0312_stg_s07_0_cat_00_cat10-bear1.png
subject-07,1,313,1.02391386032104,cat,cat,0,0313_stg_s07_0_cat_00_cat7-truck2.png
subject-07,1,314,NaN,na,bear,0,0314_stg_s07_0_bear_00_bear4-truck3.png
subject-07,1,315,1.23089599609375,car,car,0,0315_stg_s07_0_car_00_car8-boat3.png
subject-07,1,316,0.967083930969238,keyboard,elephant,0,0316_stg_s07_0_elephant_00_elephant2-truck2.png
subject-07,1,317,0.956928968429565,bottle,knife,0,0317_stg_s07_0_knife_00_knife9-bicycle1.png
subject-07,1,318,0.676017999649048,bicycle,chair,0,0318_stg_s07_0_chair_00_chair1-chair1.png
subject-07,1,319,1.18267607688904,car,cat,0,0319_stg_s07_0_cat_00_cat10-clock1.png
subject-07,1,320,1.24192905426025,truck,knife,0,0320_stg_s07_0_knife_00_knife9-airplane2.png
subject-07,1,321,1.26165795326233,elephant,dog,0,0321_stg_s07_0_dog_00_dog6-cat1.png
subject-07,1,322,1.18948292732239,dog,keyboard,0,0322_stg_s07_0_keyboard_00_keyboard7-dog1.png
subject-07,1,323,0.728150129318237,bicycle,car,0,0323_stg_s07_0_car_00_car10-chair1.png
subject-07,1,324,0.798062086105347,cat,bicycle,0,0324_stg_s07_0_bicycle_00_bicycle6-bicycle3.png
subject-07,1,325,0.91041898727417,cat,airplane,0,0325_stg_s07_0_airplane_00_airplane2-dog1.png
subject-07,1,326,0.608002901077271,boat,car,0,0326_stg_s07_0_car_00_car6-chair3.png
subject-07,1,327,1.17668795585632,airplane,keyboard,0,0327_stg_s07_0_keyboard_00_keyboard4-knife2.png
subject-07,1,328,0.75774884223938,bird,oven,0,0328_stg_s07_0_oven_00_oven8-cat3.png
subject-07,1,329,0.932464838027954,elephant,bicycle,0,0329_stg_s07_0_bicycle_00_bicycle5-elephant1.png
subject-07,1,330,0.84580397605896,bird,boat,0,0330_stg_s07_0_boat_00_boat2-bird1.png
subject-07,1,331,1.33399796485901,bear,car,0,0331_stg_s07_0_car_00_car8-dog1.png
subject-07,1,332,0.77961802482605,car,chair,0,0332_stg_s07_0_chair_00_chair9-keyboard2.png
subject-07,1,333,0.578161001205444,oven,dog,0,0333_stg_s07_0_dog_00_dog2-bicycle2.png
subject-07,1,334,0.622143030166626,keyboard,truck,0,0334_stg_s07_0_truck_00_truck2-keyboard1.png
subject-07,1,335,0.757965803146362,cat,bear,0,0335_stg_s07_0_bear_00_bear5-bicycle3.png
subject-07,1,336,0.878629207611084,bear,airplane,0,0336_stg_s07_0_airplane_00_airplane2-cat1.png
subject-07,1,337,0.767606019973755,bird,boat,0,0337_stg_s07_0_boat_00_boat8-truck2.png
subject-07,1,338,0.703155994415283,oven,bear,0,0338_stg_s07_0_bear_00_bear3-bird3.png
subject-07,1,339,0.971977949142456,car,oven,0,0339_stg_s07_0_oven_00_oven4-keyboard3.png
subject-07,1,340,0.967881917953491,elephant,chair,0,0340_stg_s07_0_chair_00_chair1-dog1.png
subject-07,1,341,1.26528716087341,boat,bottle,0,0341_stg_s07_0_bottle_00_bottle4-oven2.png
subject-07,1,342,1.29318785667419,oven,chair,0,0342_stg_s07_0_chair_00_chair1-oven3.png
subject-07,1,343,1.06873202323914,bicycle,bird,0,0343_stg_s07_0_bird_00_bird5-truck2.png
subject-07,1,344,0.74246883392334,bottle,car,0,0344_stg_s07_0_car_00_car3-bottle3.png
subject-07,1,345,0.732929944992065,car,bird,0,0345_stg_s07_0_bird_00_bird7-bird2.png
subject-07,1,346,0.906471967697144,elephant,dog,0,0346_stg_s07_0_dog_00_dog5-elephant1.png
subject-07,1,347,0.870337963104248,car,clock,0,0347_stg_s07_0_clock_00_clock6-knife2.png
subject-07,1,348,0.881779909133911,oven,elephant,0,0348_stg_s07_0_elephant_00_elephant5-chair3.png
subject-07,1,349,0.532864809036255,boat,clock,0,0349_stg_s07_0_clock_00_clock3-cat1.png
subject-07,1,350,1.18266201019287,bird,oven,0,0350_stg_s07_0_oven_00_oven3-bottle3.png
subject-07,1,351,1.09717488288879,dog,oven,0,0351_stg_s07_0_oven_00_oven7-car3.png
subject-07,1,352,0.718725919723511,airplane,elephant,0,0352_stg_s07_0_elephant_00_elephant9-clock3.png
subject-07,1,353,1.50016212463379,knife,knife,0,0353_stg_s07_0_knife_00_knife3-clock2.png
subject-07,1,354,0.607463121414185,bird,bear,0,0354_stg_s07_0_bear_00_bear10-knife2.png
subject-07,1,355,0.835312128067017,oven,bottle,0,0355_stg_s07_0_bottle_00_bottle10-boat3.png
subject-07,1,356,1.00918102264404,car,oven,0,0356_stg_s07_0_oven_00_oven2-oven3.png
subject-07,1,357,1.05833911895752,bear,bear,0,0357_stg_s07_0_bear_00_bear10-clock1.png
subject-07,1,358,1.04186701774597,truck,car,0,0358_stg_s07_0_car_00_car2-knife3.png
subject-07,1,359,1.40885400772095,dog,bottle,0,0359_stg_s07_0_bottle_00_bottle4-airplane1.png
subject-07,1,360,1.1932680606842,car,airplane,0,0360_stg_s07_0_airplane_00_airplane2-bird3.png
subject-07,1,361,0.645182132720947,clock,bicycle,0,0361_stg_s07_0_bicycle_00_bicycle8-clock3.png
subject-07,1,362,0.843384981155396,airplane,knife,0,0362_stg_s07_0_knife_00_knife6-truck1.png
subject-07,1,363,0.686765909194946,elephant,keyboard,0,0363_stg_s07_0_keyboard_00_keyboard1-elephant3.png
subject-07,1,364,1.0447850227356,cat,elephant,0,0364_stg_s07_0_elephant_00_elephant2-cat1.png
subject-07,1,365,NaN,na,cat,0,0365_stg_s07_0_cat_00_cat6-keyboard3.png
subject-07,1,366,0.761549949645996,oven,chair,0,0366_stg_s07_0_chair_00_chair2-keyboard2.png
subject-07,1,367,0.735400915145874,keyboard,boat,0,0367_stg_s07_0_boat_00_boat1-oven1.png
subject-07,1,368,0.887133121490479,bicycle,bottle,0,0368_stg_s07_0_bottle_00_bottle2-chair3.png
subject-07,1,369,NaN,na,chair,0,0369_stg_s07_0_chair_00_chair5-cat3.png
subject-07,1,370,1.50017309188843,bird,car,0,0370_stg_s07_0_car_00_car4-cat3.png
subject-07,1,371,0.618372917175293,oven,truck,0,0371_stg_s07_0_truck_00_truck3-chair2.png
subject-07,1,372,0.584693193435669,cat,boat,0,0372_stg_s07_0_boat_00_boat6-dog1.png
subject-07,1,373,1.15004301071167,boat,clock,0,0373_stg_s07_0_clock_00_clock6-chair3.png
subject-07,1,374,0.872154951095581,bird,car,0,0374_stg_s07_0_car_00_car1-keyboard2.png
subject-07,1,375,0.854607105255127,elephant,bottle,0,0375_stg_s07_0_bottle_00_bottle2-elephant1.png
subject-07,1,376,1.35842084884644,elephant,bird,0,0376_stg_s07_0_bird_00_bird10-elephant2.png
subject-07,1,377,0.734226942062378,clock,knife,0,0377_stg_s07_0_knife_00_knife4-car2.png
subject-07,1,378,0.815782070159912,airplane,bird,0,0378_stg_s07_0_bird_00_bird3-bird2.png
subject-07,1,379,0.865997076034546,bird,chair,0,0379_stg_s07_0_chair_00_chair4-bear2.png
subject-07,1,380,0.7709801197052,cat,chair,0,0380_stg_s07_0_chair_00_chair4-cat2.png
subject-07,1,381,0.599313974380493,bottle,cat,0,0381_stg_s07_0_cat_00_cat9-bicycle1.png
subject-07,1,382,0.618126153945923,bear,chair,0,0382_stg_s07_0_chair_00_chair7-car2.png
subject-07,1,383,0.708556890487671,elephant,elephant,0,0383_stg_s07_0_elephant_00_elephant7-dog1.png
subject-07,1,384,1.12075591087341,cat,airplane,0,0384_stg_s07_0_airplane_00_airplane8-chair1.png
subject-07,1,385,1.05600595474243,keyboard,airplane,0,0385_stg_s07_0_airplane_00_airplane8-clock2.png
subject-07,1,386,1.17817807197571,bird,oven,0,0386_stg_s07_0_oven_00_oven9-bear2.png
subject-07,1,387,1.46512198448181,bear,keyboard,0,0387_stg_s07_0_keyboard_00_keyboard3-cat1.png
subject-07,1,388,0.679046869277954,bottle,clock,0,0388_stg_s07_0_clock_00_clock10-clock3.png
subject-07,1,389,0.65377402305603,cat,cat,0,0389_stg_s07_0_cat_00_cat1-bird1.png
subject-07,1,390,0.789008855819702,airplane,oven,0,0390_stg_s07_0_oven_00_oven5-keyboard2.png
subject-07,1,391,0.479195833206177,boat,keyboard,0,0391_stg_s07_0_keyboard_00_keyboard1-airplane2.png
subject-07,1,392,1.44525909423828,bear,cat,0,0392_stg_s07_0_cat_00_cat5-dog3.png
subject-07,1,393,1.50002408027649,elephant,knife,0,0393_stg_s07_0_knife_00_knife10-elephant3.png
subject-07,1,394,1.0415210723877,dog,truck,0,0394_stg_s07_0_truck_00_truck5-truck1.png
subject-07,1,395,NaN,na,truck,0,0395_stg_s07_0_truck_00_truck5-dog3.png
subject-07,1,396,1.44402503967285,clock,boat,0,0396_stg_s07_0_boat_00_boat4-boat3.png
subject-07,1,397,1.12826704978943,bicycle,boat,0,0397_stg_s07_0_boat_00_boat7-keyboard3.png
subject-07,1,398,0.755208015441895,cat,bear,0,0398_stg_s07_0_bear_00_bear10-chair2.png
subject-07,1,399,1.35135698318481,bottle,clock,0,0399_stg_s07_0_clock_00_clock5-bicycle1.png
subject-07,1,400,1.12811589241028,car,bear,0,0400_stg_s07_0_bear_00_bear6-bird2.png
subject-07,1,401,0.62534499168396,oven,elephant,0,0401_stg_s07_0_elephant_00_elephant1-airplane2.png
subject-07,1,402,0.693807125091553,bottle,chair,0,0402_stg_s07_0_chair_00_chair10-car2.png
subject-07,1,403,0.772625923156738,elephant,elephant,0,0403_stg_s07_0_elephant_00_elephant6-cat2.png
subject-07,1,404,0.608041048049927,oven,bottle,0,0404_stg_s07_0_bottle_00_bottle6-bottle3.png
subject-07,1,405,0.659110069274902,bird,chair,0,0405_stg_s07_0_chair_00_chair8-car1.png
subject-07,1,406,0.854798078536987,boat,cat,0,0406_stg_s07_0_cat_00_cat10-oven2.png
subject-07,1,407,0.920413017272949,cat,elephant,0,0407_stg_s07_0_elephant_00_elephant6-bottle2.png
subject-07,1,408,0.710216999053955,cat,bottle,0,0408_stg_s07_0_bottle_00_bottle5-cat1.png
subject-07,1,409,1.22939419746399,boat,elephant,0,0409_stg_s07_0_elephant_00_elephant4-bird1.png
subject-07,1,410,1.4192910194397,bird,knife,0,0410_stg_s07_0_knife_00_knife2-bottle2.png
subject-07,1,411,1.05526494979858,elephant,truck,0,0411_stg_s07_0_truck_00_truck2-elephant1.png
subject-07,1,412,1.14522218704224,elephant,elephant,0,0412_stg_s07_0_elephant_00_elephant10-elephant1.png
subject-07,1,413,1.39419102668762,bottle,bear,0,0413_stg_s07_0_bear_00_bear5-bottle1.png
subject-07,1,414,NaN,na,truck,0,0414_stg_s07_0_truck_00_truck2-airplane3.png
subject-07,1,415,1.08818387985229,knife,dog,0,0415_stg_s07_0_dog_00_dog8-keyboard3.png
subject-07,1,416,NaN,na,boat,0,0416_stg_s07_0_boat_00_boat4-knife2.png
subject-07,1,417,0.959385871887207,bear,bicycle,0,0417_stg_s07_0_bicycle_00_bicycle4-cat1.png
subject-07,1,418,0.811760902404785,oven,oven,0,0418_stg_s07_0_oven_00_oven8-knife2.png
subject-07,1,419,0.71021580696106,bird,bicycle,0,0419_stg_s07_0_bicycle_00_bicycle5-oven3.png
subject-07,1,420,1.09224414825439,boat,dog,0,0420_stg_s07_0_dog_00_dog4-oven1.png
subject-07,1,421,0.960480928421021,bottle,dog,0,0421_stg_s07_0_dog_00_dog6-bicycle1.png
subject-07,1,422,0.750716209411621,cat,oven,0,0422_stg_s07_0_oven_00_oven10-cat2.png
subject-07,1,423,1.08443093299866,bird,boat,0,0423_stg_s07_0_boat_00_boat4-bicycle3.png
subject-07,1,424,1.05977988243103,elephant,car,0,0424_stg_s07_0_car_00_car6-elephant3.png
subject-07,1,425,0.903995990753174,car,bottle,0,0425_stg_s07_0_bottle_00_bottle6-knife3.png
subject-07,1,426,1.1034209728241,cat,boat,0,0426_stg_s07_0_boat_00_boat8-dog3.png
subject-07,1,427,0.953627824783325,chair,chair,0,0427_stg_s07_0_chair_00_chair2-knife1.png
subject-07,1,428,1.42659687995911,bear,bear,0,0428_stg_s07_0_bear_00_bear8-dog1.png
subject-07,1,429,0.886605024337769,bottle,keyboard,0,0429_stg_s07_0_keyboard_00_keyboard6-bicycle1.png
subject-07,1,430,0.973941087722778,clock,elephant,0,0430_stg_s07_0_elephant_00_elephant8-airplane3.png
subject-07,1,431,0.887740850448608,bird,bear,0,0431_stg_s07_0_bear_00_bear3-truck3.png
subject-07,1,432,0.761362075805664,keyboard,boat,0,0432_stg_s07_0_boat_00_boat10-boat3.png
subject-07,1,433,1.04298305511475,bear,knife,0,0433_stg_s07_0_knife_00_knife5-truck3.png
subject-07,1,434,0.732519149780273,bottle,bottle,0,0434_stg_s07_0_bottle_00_bottle4-car3.png
subject-07,1,435,1.34514713287354,bottle,elephant,0,0435_stg_s07_0_elephant_00_elephant6-bicycle1.png
subject-07,1,436,1.06419515609741,knife,bear,0,0436_stg_s07_0_bear_00_bear2-car2.png
subject-07,1,437,1.37602686882019,bicycle,car,0,0437_stg_s07_0_car_00_car8-airplane3.png
subject-07,1,438,1.05199313163757,airplane,boat,0,0438_stg_s07_0_boat_00_boat2-oven3.png
subject-07,1,439,NaN,na,oven,0,0439_stg_s07_0_oven_00_oven4-chair1.png
subject-07,1,440,0.928424119949341,oven,bicycle,0,0440_stg_s07_0_bicycle_00_bicycle8-truck1.png
subject-07,1,441,0.723421096801758,elephant,chair,0,0441_stg_s07_0_chair_00_chair8-elephant1.png
subject-07,1,442,0.876101016998291,bird,dog,0,0442_stg_s07_0_dog_00_dog5-car3.png
subject-07,1,443,0.841886043548584,car,cat,0,0443_stg_s07_0_cat_00_cat1-chair2.png
subject-07,1,444,1.19951581954956,truck,cat,0,0444_stg_s07_0_cat_00_cat7-boat3.png
subject-07,1,445,0.705873966217041,keyboard,truck,0,0445_stg_s07_0_truck_00_truck3-keyboard3.png
subject-07,1,446,1.03703594207764,cat,elephant,0,0446_stg_s07_0_elephant_00_elephant2-bottle3.png
subject-07,1,447,0.926589965820312,bicycle,chair,0,0447_stg_s07_0_chair_00_chair3-bottle3.png
subject-07,1,448,NaN,na,bear,0,0448_stg_s07_0_bear_00_bear8-airplane1.png
subject-07,1,449,1.0719518661499,clock,bird,0,0449_stg_s07_0_bird_00_bird8-boat3.png
subject-07,1,450,1.3152220249176,oven,oven,0,0450_stg_s07_0_oven_00_oven6-truck1.png
subject-07,1,451,0.47576904296875,boat,boat,0,0451_stg_s07_0_boat_00_boat2-keyboard1.png
subject-07,1,452,0.962939977645874,bottle,bird,0,0452_stg_s07_0_bird_00_bird5-bicycle1.png
subject-07,1,453,1.28314304351807,elephant,bear,0,0453_stg_s07_0_bear_00_bear5-oven3.png
subject-07,1,454,0.812509059906006,bottle,oven,0,0454_stg_s07_0_oven_00_oven2-bottle1.png
subject-07,1,455,1.20820498466492,bear,chair,0,0455_stg_s07_0_chair_00_chair10-dog1.png
subject-07,1,456,0.735840082168579,bird,cat,0,0456_stg_s07_0_cat_00_cat2-bottle3.png
subject-07,1,457,1.2717878818512,clock,cat,0,0457_stg_s07_0_cat_00_cat2-car3.png
subject-07,1,458,1.19154691696167,cat,dog,0,0458_stg_s07_0_dog_00_dog3-dog1.png
subject-07,1,459,1.11147212982178,bear,airplane,0,0459_stg_s07_0_airplane_00_airplane6-bear3.png
subject-07,1,460,1.03149914741516,car,airplane,0,0460_stg_s07_0_airplane_00_airplane4-knife1.png
subject-07,1,461,1.22181105613708,truck,car,0,0461_stg_s07_0_car_00_car5-knife2.png
subject-07,1,462,NaN,na,clock,0,0462_stg_s07_0_clock_00_clock3-bear3.png
subject-07,1,463,1.05452299118042,bottle,airplane,0,0463_stg_s07_0_airplane_00_airplane5-bottle3.png
subject-07,1,464,NaN,na,bird,0,0464_stg_s07_0_bird_00_bird7-truck2.png
subject-07,1,465,1.50027394294739,bicycle,clock,0,0465_stg_s07_0_clock_00_clock5-keyboard1.png
subject-07,1,466,1.19357991218567,oven,bicycle,0,0466_stg_s07_0_bicycle_00_bicycle3-keyboard1.png
subject-07,1,467,1.22116899490356,car,bicycle,0,0467_stg_s07_0_bicycle_00_bicycle8-bird2.png
subject-07,1,468,1.04916095733643,clock,clock,0,0468_stg_s07_0_clock_00_clock3-elephant3.png
subject-07,1,469,1.31509804725647,knife,bicycle,0,0469_stg_s07_0_bicycle_00_bicycle6-cat1.png
subject-07,1,470,1.31306409835815,clock,bicycle,0,0470_stg_s07_0_bicycle_00_bicycle7-knife2.png
subject-07,1,471,1.27097606658936,dog,airplane,0,0471_stg_s07_0_airplane_00_airplane7-keyboard1.png
subject-07,1,472,1.25614404678345,car,boat,0,0472_stg_s07_0_boat_00_boat1-keyboard3.png
subject-07,1,473,0.737942934036255,oven,bottle,0,0473_stg_s07_0_bottle_00_bottle1-chair2.png
subject-07,1,474,1.28736710548401,bottle,dog,0,0474_stg_s07_0_dog_00_dog9-bottle1.png
subject-07,1,475,0.692728042602539,bear,bird,0,0475_stg_s07_0_bird_00_bird2-dog2.png
subject-07,1,476,0.752860069274902,bird,bird,0,0476_stg_s07_0_bird_00_bird3-cat1.png
subject-07,1,477,1.10319089889526,cat,chair,0,0477_stg_s07_0_chair_00_chair7-cat1.png
subject-07,1,478,1.16425204277039,clock,bicycle,0,0478_stg_s07_0_bicycle_00_bicycle1-clock3.png
subject-07,1,479,1.06212902069092,elephant,knife,0,0479_stg_s07_0_knife_00_knife9-bear3.png
subject-07,1,480,1.3746600151062,clock,truck,0,0480_stg_s07_0_truck_00_truck2-bottle3.png
subject-07,1,481,0.544003009796143,boat,chair,0,0481_stg_s07_0_chair_00_chair8-keyboard3.png
subject-07,1,482,1.29387283325195,clock,clock,0,0482_stg_s07_0_clock_00_clock7-keyboard2.png
subject-07,1,483,1.50029492378235,cat,keyboard,0,0483_stg_s07_0_keyboard_00_keyboard9-cat1.png
subject-07,1,484,1.23424696922302,bird,bird,0,0484_stg_s07_0_bird_00_bird3-dog1.png
subject-07,1,485,1.14634394645691,car,cat,0,0485_stg_s07_0_cat_00_cat10-airplane3.png
subject-07,1,486,0.973979949951172,truck,boat,0,0486_stg_s07_0_boat_00_boat6-clock2.png
subject-07,1,487,0.842668056488037,bottle,bottle,0,0487_stg_s07_0_bottle_00_bottle8-bicycle1.png
subject-07,1,488,0.862778902053833,bicycle,boat,0,0488_stg_s07_0_boat_00_boat9-airplane2.png
subject-07,1,489,1.07959485054016,bicycle,bicycle,0,0489_stg_s07_0_bicycle_00_bicycle8-boat1.png
subject-07,1,490,1.28328108787537,cat,truck,0,0490_stg_s07_0_truck_00_truck6-dog2.png
subject-07,1,491,1.03509092330933,bear,cat,0,0491_stg_s07_0_cat_00_cat8-bear1.png
subject-07,1,492,0.879160165786743,elephant,knife,0,0492_stg_s07_0_knife_00_knife6-oven3.png
subject-07,1,493,0.637030124664307,clock,truck,0,0493_stg_s07_0_truck_00_truck4-bottle2.png
subject-07,1,494,0.703016042709351,boat,boat,0,0494_stg_s07_0_boat_00_boat7-truck2.png
subject-07,1,495,1.47342896461487,keyboard,cat,0,0495_stg_s07_0_cat_00_cat4-keyboard2.png
subject-07,1,496,1.17885684967041,car,chair,0,0496_stg_s07_0_chair_00_chair10-clock1.png
subject-07,1,497,1.26121306419373,bicycle,dog,0,0497_stg_s07_0_dog_00_dog9-boat1.png
subject-07,1,498,0.802509069442749,cat,bottle,0,0498_stg_s07_0_bottle_00_bottle5-chair1.png
subject-07,1,499,0.854979038238525,chair,elephant,0,0499_stg_s07_0_elephant_00_elephant1-boat2.png
subject-07,1,500,1.24239993095398,airplane,chair,0,0500_stg_s07_0_chair_00_chair5-oven2.png
subject-07,1,501,0.839062929153442,cat,chair,0,0501_stg_s07_0_chair_00_chair9-bear1.png
subject-07,1,502,0.805120944976807,bird,clock,0,0502_stg_s07_0_clock_00_clock4-chair1.png
subject-07,1,503,0.703449964523315,boat,knife,0,0503_stg_s07_0_knife_00_knife10-chair1.png
subject-07,1,504,0.851979970932007,car,knife,0,0504_stg_s07_0_knife_00_knife9-boat1.png
subject-07,1,505,1.1854350566864,truck,chair,0,0505_stg_s07_0_chair_00_chair3-knife1.png
subject-07,1,506,0.883032083511353,bird,oven,0,0506_stg_s07_0_oven_00_oven9-car2.png
subject-07,1,507,0.878654003143311,bottle,bottle,0,0507_stg_s07_0_bottle_00_bottle2-knife3.png
subject-07,1,508,1.2389760017395,bicycle,dog,0,0508_stg_s07_0_dog_00_dog1-airplane3.png
subject-07,1,509,0.683211803436279,cat,clock,0,0509_stg_s07_0_clock_00_clock10-cat1.png
subject-07,1,510,0.664390087127686,boat,airplane,0,0510_stg_s07_0_airplane_00_airplane9-oven2.png
subject-07,1,511,0.968898057937622,car,truck,0,0511_stg_s07_0_truck_00_truck1-cat1.png
subject-07,1,512,1.00407910346985,knife,bicycle,0,0512_stg_s07_0_bicycle_00_bicycle4-oven3.png
subject-07,1,513,0.890933036804199,boat,bottle,0,0513_stg_s07_0_bottle_00_bottle4-truck1.png
subject-07,1,514,0.627427816390991,clock,keyboard,0,0514_stg_s07_0_keyboard_00_keyboard6-knife2.png
subject-07,1,515,1.50026106834412,elephant,bird,0,0515_stg_s07_0_bird_00_bird8-elephant1.png
subject-07,1,516,0.798693895339966,car,knife,0,0516_stg_s07_0_knife_00_knife5-oven2.png
subject-07,1,517,1.10262179374695,truck,bottle,0,0517_stg_s07_0_bottle_00_bottle7-airplane3.png
subject-07,1,518,1.11505103111267,bird,bicycle,0,0518_stg_s07_0_bicycle_00_bicycle6-dog2.png
subject-07,1,519,0.752399206161499,boat,clock,0,0519_stg_s07_0_clock_00_clock10-knife3.png
subject-07,1,520,0.724102973937988,cat,oven,0,0520_stg_s07_0_oven_00_oven3-bear2.png
subject-07,1,521,NaN,na,bicycle,0,0521_stg_s07_0_bicycle_00_bicycle4-truck3.png
subject-07,1,522,0.6910400390625,bear,airplane,0,0522_stg_s07_0_airplane_00_airplane10-oven2.png
subject-07,1,523,1.01209378242493,bird,truck,0,0523_stg_s07_0_truck_00_truck1-bicycle3.png
subject-07,1,524,0.917866945266724,truck,bird,0,0524_stg_s07_0_bird_00_bird7-knife2.png
subject-07,1,525,0.867712020874023,cat,bird,0,0525_stg_s07_0_bird_00_bird9-bear3.png
subject-07,1,526,0.866495132446289,chair,bottle,0,0526_stg_s07_0_bottle_00_bottle6-boat3.png
subject-07,1,527,0.671816110610962,cat,truck,0,0527_stg_s07_0_truck_00_truck5-keyboard1.png
subject-07,1,528,1.50014710426331,knife,airplane,0,0528_stg_s07_0_airplane_00_airplane3-airplane2.png
subject-07,1,529,1.46343493461609,dog,bird,0,0529_stg_s07_0_bird_00_bird10-bear2.png
subject-07,1,530,0.777439117431641,bird,boat,0,0530_stg_s07_0_boat_00_boat10-bear3.png
subject-07,1,531,0.837478160858154,boat,dog,0,0531_stg_s07_0_dog_00_dog1-boat3.png
subject-07,1,532,0.779636859893799,car,bird,0,0532_stg_s07_0_bird_00_bird10-chair1.png
subject-07,1,533,0.868992805480957,truck,truck,0,0533_stg_s07_0_truck_00_truck9-airplane2.png
subject-07,1,534,1.08963990211487,truck,cat,0,0534_stg_s07_0_cat_00_cat5-airplane2.png
subject-07,1,535,1.05530691146851,cat,airplane,0,0535_stg_s07_0_airplane_00_airplane4-cat3.png
subject-07,1,536,0.796436071395874,bottle,bottle,0,0536_stg_s07_0_bottle_00_bottle9-bottle1.png
subject-07,1,537,0.81626296043396,clock,bicycle,0,0537_stg_s07_0_bicycle_00_bicycle5-keyboard3.png
subject-07,1,538,0.646968126296997,oven,cat,0,0538_stg_s07_0_cat_00_cat2-boat2.png
subject-07,1,539,0.728905916213989,cat,clock,0,0539_stg_s07_0_clock_00_clock1-bear1.png
subject-07,1,540,0.710761070251465,bottle,oven,0,0540_stg_s07_0_oven_00_oven7-bottle1.png
subject-07,1,541,1.00649380683899,truck,airplane,0,0541_stg_s07_0_airplane_00_airplane7-cat3.png
subject-07,1,542,0.73902416229248,clock,truck,0,0542_stg_s07_0_truck_00_truck2-clock1.png
subject-07,1,543,1.44333815574646,knife,knife,0,0543_stg_s07_0_knife_00_knife2-truck2.png
subject-07,1,544,1.232990026474,bird,bird,0,0544_stg_s07_0_bird_00_bird5-bear3.png
subject-07,1,545,1.37725496292114,airplane,elephant,0,0545_stg_s07_0_elephant_00_elephant2-airplane3.png
subject-07,1,546,NaN,na,airplane,0,0546_stg_s07_0_airplane_00_airplane10-knife3.png
subject-07,1,547,0.810784816741943,bicycle,keyboard,0,0547_stg_s07_0_keyboard_00_keyboard9-boat2.png
subject-07,1,548,0.792135000228882,elephant,airplane,0,0548_stg_s07_0_airplane_00_airplane10-elephant1.png
subject-07,1,549,0.774121999740601,bottle,bear,0,0549_stg_s07_0_bear_00_bear1-bicycle3.png
subject-07,1,550,1.27022695541382,truck,boat,0,0550_stg_s07_0_boat_00_boat3-clock3.png
subject-07,1,551,1.24427604675293,cat,clock,0,0551_stg_s07_0_clock_00_clock1-truck3.png
subject-07,1,552,0.566100120544434,bottle,airplane,0,0552_stg_s07_0_airplane_00_airplane5-chair3.png
subject-07,1,553,0.740041971206665,bottle,clock,0,0553_stg_s07_0_clock_00_clock6-bottle1.png
subject-07,1,554,0.873243093490601,bear,cat,0,0554_stg_s07_0_cat_00_cat6-chair3.png
subject-07,1,555,0.971787929534912,cat,oven,0,0555_stg_s07_0_oven_00_oven2-bear3.png
subject-07,1,556,1.01598286628723,bicycle,clock,0,0556_stg_s07_0_clock_00_clock8-cat1.png
subject-07,1,557,1.15215301513672,bottle,boat,0,0557_stg_s07_0_boat_00_boat7-bottle1.png
subject-07,1,558,0.517232894897461,clock,boat,0,0558_stg_s07_0_boat_00_boat10-cat1.png
subject-07,1,559,0.662001132965088,bottle,bottle,0,0559_stg_s07_0_bottle_00_bottle3-bicycle3.png
subject-07,1,560,1.16558408737183,truck,chair,0,0560_stg_s07_0_chair_00_chair7-airplane1.png
subject-07,1,561,0.925938129425049,dog,bear,0,0561_stg_s07_0_bear_00_bear2-dog1.png
subject-07,1,562,0.96956992149353,bird,knife,0,0562_stg_s07_0_knife_00_knife6-airplane1.png
subject-07,1,563,0.757005929946899,cat,bird,0,0563_stg_s07_0_bird_00_bird9-dog2.png
subject-07,1,564,0.972057104110718,bear,dog,0,0564_stg_s07_0_dog_00_dog2-dog3.png
subject-07,1,565,0.916006088256836,oven,elephant,0,0565_stg_s07_0_elephant_00_elephant7-car3.png
subject-07,1,566,0.705795049667358,keyboard,keyboard,0,0566_stg_s07_0_keyboard_00_keyboard8-chair2.png
subject-07,1,567,1.20155811309814,airplane,knife,0,0567_stg_s07_0_knife_00_knife6-chair3.png
subject-07,1,568,0.883149147033691,car,airplane,0,0568_stg_s07_0_airplane_00_airplane5-knife1.png
subject-07,1,569,1.50017619132996,dog,clock,0,0569_stg_s07_0_clock_00_clock10-dog3.png
subject-07,1,570,1.31484913825989,cat,elephant,0,0570_stg_s07_0_elephant_00_elephant10-bear1.png
subject-07,1,571,0.890605211257935,bear,bottle,0,0571_stg_s07_0_bottle_00_bottle6-dog3.png
subject-07,1,572,0.856456995010376,truck,knife,0,0572_stg_s07_0_knife_00_knife1-oven1.png
subject-07,1,573,0.729880094528198,cat,car,0,0573_stg_s07_0_car_00_car7-bear1.png
subject-07,1,574,0.820142030715942,clock,keyboard,0,0574_stg_s07_0_keyboard_00_keyboard7-car3.png
subject-07,1,575,0.678419828414917,bicycle,oven,0,0575_stg_s07_0_oven_00_oven1-boat3.png
subject-07,1,576,0.844816923141479,oven,knife,0,0576_stg_s07_0_knife_00_knife6-bicycle1.png
subject-07,1,577,1.07213807106018,chair,bear,0,0577_stg_s07_0_bear_00_bear8-knife3.png
subject-07,1,578,1.07071995735168,bottle,airplane,0,0578_stg_s07_0_airplane_00_airplane4-bottle1.png
subject-07,1,579,0.847248077392578,bear,airplane,0,0579_stg_s07_0_airplane_00_airplane3-keyboard2.png
subject-07,1,580,0.934804916381836,knife,truck,0,0580_stg_s07_0_truck_00_truck10-airplane1.png
subject-07,1,581,0.765050888061523,knife,oven,0,0581_stg_s07_0_oven_00_oven6-knife3.png
subject-07,1,582,0.600600957870483,cat,truck,0,0582_stg_s07_0_truck_00_truck3-bear3.png
subject-07,1,583,0.793210983276367,bird,cat,0,0583_stg_s07_0_cat_00_cat9-cat3.png
subject-07,1,584,0.79226016998291,bottle,dog,0,0584_stg_s07_0_dog_00_dog7-chair2.png
subject-07,1,585,0.974338054656982,car,boat,0,0585_stg_s07_0_boat_00_boat9-boat3.png
subject-07,1,586,1.1479480266571,bear,car,0,0586_stg_s07_0_car_00_car5-cat1.png
subject-07,1,587,0.624470949172974,oven,keyboard,0,0587_stg_s07_0_keyboard_00_keyboard1-car3.png
subject-07,1,588,0.79060697555542,elephant,bird,0,0588_stg_s07_0_bird_00_bird1-bicycle2.png
subject-07,1,589,0.872512102127075,truck,keyboard,0,0589_stg_s07_0_keyboard_00_keyboard6-bear2.png
subject-07,1,590,1.10947585105896,car,clock,0,0590_stg_s07_0_clock_00_clock5-clock2.png
subject-07,1,591,0.737251996994019,cat,bird,0,0591_stg_s07_0_bird_00_bird7-cat3.png
subject-07,1,592,0.648176908493042,bird,keyboard,0,0592_stg_s07_0_keyboard_00_keyboard6-chair1.png
subject-07,1,593,0.822494983673096,bottle,boat,0,0593_stg_s07_0_boat_00_boat4-bottle2.png
subject-07,1,594,0.974765062332153,bicycle,airplane,0,0594_stg_s07_0_airplane_00_airplane1-chair2.png
subject-07,1,595,1.10846996307373,oven,truck,0,0595_stg_s07_0_truck_00_truck3-oven2.png
subject-07,1,596,0.922268152236938,oven,oven,0,0596_stg_s07_0_oven_00_oven10-oven3.png
subject-07,1,597,NaN,na,boat,0,0597_stg_s07_0_boat_00_boat5-car3.png
subject-07,1,598,0.962541103363037,dog,boat,0,0598_stg_s07_0_boat_00_boat3-bicycle2.png
subject-07,1,599,0.965937852859497,elephant,car,0,0599_stg_s07_0_car_00_car4-elephant3.png
subject-07,1,600,0.896492004394531,bear,truck,0,0600_stg_s07_0_truck_00_truck1-chair2.png
subject-07,1,601,0.816482067108154,oven,chair,0,0601_stg_s07_0_chair_00_chair5-boat3.png
subject-07,1,602,0.743705987930298,cat,keyboard,0,0602_stg_s07_0_keyboard_00_keyboard8-dog3.png
subject-07,1,603,0.647975921630859,boat,bird,0,0603_stg_s07_0_bird_00_bird3-bottle2.png
subject-07,1,604,NaN,na,elephant,0,0604_stg_s07_0_elephant_00_elephant5-bear2.png
subject-07,1,605,0.866024971008301,car,dog,0,0605_stg_s07_0_dog_00_dog4-clock1.png
subject-07,1,606,1.11031699180603,airplane,dog,0,0606_stg_s07_0_dog_00_dog5-boat3.png
subject-07,1,607,1.13816404342651,airplane,bear,0,0607_stg_s07_0_bear_00_bear1-clock2.png
subject-07,1,608,0.827324151992798,oven,airplane,0,0608_stg_s07_0_airplane_00_airplane6-bottle2.png
subject-07,1,609,0.885835886001587,dog,bird,0,0609_stg_s07_0_bird_00_bird5-dog2.png
subject-07,1,610,1.05111813545227,cat,bottle,0,0610_stg_s07_0_bottle_00_bottle6-chair2.png
subject-07,1,611,1.17076897621155,bear,keyboard,0,0611_stg_s07_0_keyboard_00_keyboard9-bicycle2.png
subject-07,1,612,0.6071457862854,oven,bicycle,0,0612_stg_s07_0_bicycle_00_bicycle6-boat2.png
subject-07,1,613,1.13506984710693,knife,cat,0,0613_stg_s07_0_cat_00_cat1-keyboard3.png
subject-07,1,614,0.632160902023315,cat,oven,0,0614_stg_s07_0_oven_00_oven5-bottle3.png
subject-07,1,615,1.12087106704712,elephant,dog,0,0615_stg_s07_0_dog_00_dog9-bear3.png
subject-07,1,616,0.978334188461304,elephant,truck,0,0616_stg_s07_0_truck_00_truck7-truck2.png
subject-07,1,617,1.16422700881958,bear,boat,0,0617_stg_s07_0_boat_00_boat9-bear3.png
subject-07,1,618,1.01180577278137,truck,airplane,0,0618_stg_s07_0_airplane_00_airplane2-bicycle1.png
subject-07,1,619,0.702646017074585,oven,chair,0,0619_stg_s07_0_chair_00_chair5-car1.png
subject-07,1,620,1.50007700920105,cat,boat,0,0620_stg_s07_0_boat_00_boat9-dog2.png
subject-07,1,621,0.949867010116577,car,bear,0,0621_stg_s07_0_bear_00_bear5-boat2.png
subject-07,1,622,0.723602056503296,cat,bottle,0,0622_stg_s07_0_bottle_00_bottle9-car3.png
subject-07,1,623,0.87345290184021,truck,bottle,0,0623_stg_s07_0_bottle_00_bottle3-airplane2.png
subject-07,1,624,0.741985082626343,cat,keyboard,0,0624_stg_s07_0_keyboard_00_keyboard4-cat2.png
subject-07,1,625,0.724354028701782,elephant,airplane,0,0625_stg_s07_0_airplane_00_airplane1-elephant1.png
subject-07,1,626,0.78193998336792,clock,oven,0,0626_stg_s07_0_oven_00_oven4-clock2.png
subject-07,1,627,0.717711925506592,cat,truck,0,0627_stg_s07_0_truck_00_truck8-cat2.png
subject-07,1,628,0.867650985717773,car,airplane,0,0628_stg_s07_0_airplane_00_airplane8-truck3.png
subject-07,1,629,0.949731111526489,keyboard,bottle,0,0629_stg_s07_0_bottle_00_bottle6-oven3.png
subject-07,1,630,0.59302806854248,oven,knife,0,0630_stg_s07_0_knife_00_knife4-boat1.png
subject-07,1,631,0.790982007980347,airplane,dog,0,0631_stg_s07_0_dog_00_dog3-knife3.png
subject-07,1,632,0.702610015869141,car,dog,0,0632_stg_s07_0_dog_00_dog7-oven2.png
subject-07,1,633,1.34434008598328,airplane,bird,0,0633_stg_s07_0_bird_00_bird4-airplane1.png
subject-07,1,634,0.954998016357422,bird,truck,0,0634_stg_s07_0_truck_00_truck7-bear2.png
subject-07,1,635,0.853876113891602,elephant,bottle,0,0635_stg_s07_0_bottle_00_bottle5-elephant1.png
subject-07,1,636,0.857323169708252,elephant,bicycle,0,0636_stg_s07_0_bicycle_00_bicycle7-bicycle2.png
subject-07,1,637,0.779922008514404,bicycle,airplane,0,0637_stg_s07_0_airplane_00_airplane7-car1.png
subject-07,1,638,0.938394069671631,truck,bicycle,0,0638_stg_s07_0_bicycle_00_bicycle6-airplane2.png
subject-07,1,639,0.952814102172852,car,cat,0,0639_stg_s07_0_cat_00_cat9-boat2.png
subject-07,1,640,1.09334683418274,airplane,bottle,0,0640_stg_s07_0_bottle_00_bottle5-keyboard2.png
subject-07,1,641,1.31938099861145,boat,dog,0,0641_stg_s07_0_dog_00_dog4-bird1.png
subject-07,1,642,1.03851008415222,elephant,airplane,0,0642_stg_s07_0_airplane_00_airplane8-elephant3.png
subject-07,1,643,0.745107173919678,cat,bird,0,0643_stg_s07_0_bird_00_bird2-bird2.png
subject-07,1,644,1.10156202316284,knife,knife,0,0644_stg_s07_0_knife_00_knife5-knife3.png
subject-07,1,645,1.23029589653015,boat,car,0,0645_stg_s07_0_car_00_car8-cat1.png
subject-07,1,646,0.565340995788574,cat,oven,0,0646_stg_s07_0_oven_00_oven3-airplane1.png
subject-07,1,647,0.785444021224976,oven,cat,0,0647_stg_s07_0_cat_00_cat4-knife1.png
subject-07,1,648,0.751184940338135,boat,knife,0,0648_stg_s07_0_knife_00_knife1-bird2.png
subject-07,1,649,0.912045001983643,elephant,boat,0,0649_stg_s07_0_boat_00_boat6-elephant2.png
subject-07,1,650,0.762263774871826,clock,chair,0,0650_stg_s07_0_chair_00_chair9-bicycle3.png
subject-07,1,651,1.17431998252869,bear,bicycle,0,0651_stg_s07_0_bicycle_00_bicycle8-chair2.png
subject-07,1,652,0.763901948928833,oven,oven,0,0652_stg_s07_0_oven_00_oven2-bicycle1.png
subject-07,1,653,0.983726978302002,cat,cat,0,0653_stg_s07_0_cat_00_cat4-dog3.png
subject-07,1,654,0.719561100006104,cat,bird,0,0654_stg_s07_0_bird_00_bird7-bottle1.png
subject-07,1,655,0.718039989471436,car,car,0,0655_stg_s07_0_car_00_car5-keyboard3.png
subject-07,1,656,0.659478902816772,airplane,clock,0,0656_stg_s07_0_clock_00_clock9-cat1.png
subject-07,1,657,0.711332082748413,bottle,boat,0,0657_stg_s07_0_boat_00_boat8-bottle1.png
subject-07,1,658,0.961376190185547,boat,car,0,0658_stg_s07_0_car_00_car9-keyboard2.png
subject-07,1,659,1.43494582176208,oven,cat,0,0659_stg_s07_0_cat_00_cat9-bird3.png
subject-07,1,660,0.641020059585571,oven,clock,0,0660_stg_s07_0_clock_00_clock4-boat3.png
subject-07,1,661,0.690648078918457,bottle,clock,0,0661_stg_s07_0_clock_00_clock10-bottle1.png
subject-07,1,662,0.639958143234253,bottle,bird,0,0662_stg_s07_0_bird_00_bird9-bottle3.png
subject-07,1,663,0.675255060195923,cat,chair,0,0663_stg_s07_0_chair_00_chair7-clock3.png
subject-07,1,664,0.665925025939941,bear,bottle,0,0664_stg_s07_0_bottle_00_bottle10-truck3.png
subject-07,1,665,0.871074199676514,clock,bear,0,0665_stg_s07_0_bear_00_bear10-oven1.png
subject-07,1,666,0.852679014205933,airplane,bear,0,0666_stg_s07_0_bear_00_bear9-boat2.png
subject-07,1,667,0.821209907531738,airplane,knife,0,0667_stg_s07_0_knife_00_knife1-airplane1.png
subject-07,1,668,1.06982183456421,car,car,0,0668_stg_s07_0_car_00_car8-truck3.png
subject-07,1,669,1.11251902580261,bird,chair,0,0669_stg_s07_0_chair_00_chair1-cat3.png
subject-07,1,670,1.00978112220764,bicycle,clock,0,0670_stg_s07_0_clock_00_clock5-chair3.png
subject-07,1,671,1.02194118499756,airplane,boat,0,0671_stg_s07_0_boat_00_boat6-bicycle2.png
subject-07,1,672,0.988116025924683,bottle,airplane,0,0672_stg_s07_0_airplane_00_airplane7-boat2.png
subject-07,1,673,1.10178089141846,car,bicycle,0,0673_stg_s07_0_bicycle_00_bicycle5-cat1.png
subject-07,1,674,1.27323913574219,elephant,oven,0,0674_stg_s07_0_oven_00_oven3-elephant3.png
subject-07,1,675,NaN,na,chair,0,0675_stg_s07_0_chair_00_chair3-airplane2.png
subject-07,1,676,0.904404878616333,car,boat,0,0676_stg_s07_0_boat_00_boat4-bird1.png
subject-07,1,677,0.939900159835815,airplane,car,0,0677_stg_s07_0_car_00_car4-boat1.png
subject-07,1,678,0.667130947113037,cat,oven,0,0678_stg_s07_0_oven_00_oven9-clock2.png
subject-07,1,679,1.07095098495483,bottle,cat,0,0679_stg_s07_0_cat_00_cat3-bicycle1.png
subject-07,1,680,0.922960996627808,bicycle,boat,0,0680_stg_s07_0_boat_00_boat6-truck3.png
subject-07,1,681,0.894132137298584,elephant,dog,0,0681_stg_s07_0_dog_00_dog3-elephant2.png
subject-07,1,682,0.821399927139282,bird,knife,0,0682_stg_s07_0_knife_00_knife6-dog2.png
subject-07,1,683,1.08748292922974,car,car,0,0683_stg_s07_0_car_00_car8-chair1.png
subject-07,1,684,0.815400838851929,airplane,clock,0,0684_stg_s07_0_clock_00_clock7-dog2.png
subject-07,1,685,1.3193199634552,bird,chair,0,0685_stg_s07_0_chair_00_chair5-bottle3.png
subject-07,1,686,1.08475708961487,bear,bottle,0,0686_stg_s07_0_bottle_00_bottle1-keyboard3.png
subject-07,1,687,1.00559210777283,boat,truck,0,0687_stg_s07_0_truck_00_truck7-bird2.png
subject-07,1,688,0.933449983596802,car,chair,0,0688_stg_s07_0_chair_00_chair7-truck3.png
subject-07,1,689,0.722880125045776,cat,cat,0,0689_stg_s07_0_cat_00_cat3-cat1.png
subject-07,1,690,0.80461597442627,oven,elephant,0,0690_stg_s07_0_elephant_00_elephant7-bottle3.png
subject-07,1,691,0.791411876678467,bicycle,dog,0,0691_stg_s07_0_dog_00_dog4-airplane3.png
subject-07,1,692,0.651501893997192,bear,oven,0,0692_stg_s07_0_oven_00_oven7-clock2.png
subject-07,1,693,1.2613639831543,cat,elephant,0,0693_stg_s07_0_elephant_00_elephant6-bird1.png
subject-07,1,694,0.820941925048828,elephant,keyboard,0,0694_stg_s07_0_keyboard_00_keyboard7-oven2.png
subject-07,1,695,0.778489112854004,elephant,clock,0,0695_stg_s07_0_clock_00_clock5-elephant2.png
subject-07,1,696,0.823487997055054,bottle,oven,0,0696_stg_s07_0_oven_00_oven6-bicycle1.png
subject-07,1,697,0.667325973510742,car,cat,0,0697_stg_s07_0_cat_00_cat4-oven1.png
subject-07,1,698,1.45509505271912,truck,cat,0,0698_stg_s07_0_cat_00_cat9-knife2.png
subject-07,1,699,0.683946847915649,oven,truck,0,0699_stg_s07_0_truck_00_truck4-oven2.png
subject-07,1,700,0.911537885665894,bottle,bicycle,0,0700_stg_s07_0_bicycle_00_bicycle2-knife2.png
subject-07,1,701,0.9774329662323,elephant,bear,0,0701_stg_s07_0_bear_00_bear10-elephant1.png
subject-07,1,702,1.49801397323608,bicycle,bicycle,0,0702_stg_s07_0_bicycle_00_bicycle4-bicycle3.png
subject-07,1,703,0.834062099456787,car,elephant,0,0703_stg_s07_0_elephant_00_elephant2-keyboard3.png
subject-07,1,704,1.17885589599609,keyboard,knife,0,0704_stg_s07_0_knife_00_knife4-oven2.png
subject-07,1,705,0.868307113647461,elephant,bottle,0,0705_stg_s07_0_bottle_00_bottle1-bear1.png
subject-07,1,706,0.657757043838501,oven,oven,0,0706_stg_s07_0_oven_00_oven1-bird3.png
subject-07,1,707,1.10057806968689,car,elephant,0,0707_stg_s07_0_elephant_00_elephant7-bird1.png
subject-07,1,708,1.01933813095093,bicycle,oven,0,0708_stg_s07_0_oven_00_oven2-dog3.png
subject-07,1,709,1.48605394363403,airplane,oven,0,0709_stg_s07_0_oven_00_oven9-oven1.png
subject-07,1,710,0.946018934249878,oven,bear,0,0710_stg_s07_0_bear_00_bear7-oven3.png
subject-07,1,711,1.09585785865784,keyboard,chair,0,0711_stg_s07_0_chair_00_chair7-bird1.png
subject-07,1,712,1.04003691673279,car,boat,0,0712_stg_s07_0_boat_00_boat5-airplane1.png
subject-07,1,713,0.990070104598999,truck,chair,0,0713_stg_s07_0_chair_00_chair8-oven1.png
subject-07,1,714,1.28485298156738,boat,clock,0,0714_stg_s07_0_clock_00_clock6-truck3.png
subject-07,1,715,0.845254898071289,elephant,elephant,0,0715_stg_s07_0_elephant_00_elephant9-elephant3.png
subject-07,1,716,1.23350715637207,knife,bear,0,0716_stg_s07_0_bear_00_bear2-keyboard2.png
subject-07,1,717,1.35274600982666,bicycle,cat,0,0717_stg_s07_0_cat_00_cat5-keyboard3.png
subject-07,1,718,0.99689793586731,dog,clock,0,0718_stg_s07_0_clock_00_clock10-oven2.png
subject-07,1,719,1.07048392295837,airplane,keyboard,0,0719_stg_s07_0_keyboard_00_keyboard4-oven2.png
subject-07,1,720,1.18229103088379,cat,airplane,0,0720_stg_s07_0_airplane_00_airplane4-dog2.png
subject-07,1,721,1.20819878578186,bird,boat,0,0721_stg_s07_0_boat_00_boat8-bird2.png
subject-07,1,722,1.09239196777344,chair,bird,0,0722_stg_s07_0_bird_00_bird5-airplane3.png
subject-07,1,723,0.888325929641724,bottle,dog,0,0723_stg_s07_0_dog_00_dog4-bottle2.png
subject-07,1,724,0.832067012786865,bear,bear,0,0724_stg_s07_0_bear_00_bear4-boat2.png
subject-07,1,725,0.898807048797607,keyboard,oven,0,0725_stg_s07_0_oven_00_oven5-airplane1.png
subject-07,1,726,1.2644670009613,elephant,elephant,0,0726_stg_s07_0_elephant_00_elephant7-cat1.png
subject-07,1,727,0.992866992950439,truck,clock,0,0727_stg_s07_0_clock_00_clock2-knife1.png
subject-07,1,728,0.753360986709595,car,bear,0,0728_stg_s07_0_bear_00_bear2-bird3.png
subject-07,1,729,0.657217025756836,bird,bottle,0,0729_stg_s07_0_bottle_00_bottle10-clock2.png
subject-07,1,730,0.808862924575806,cat,dog,0,0730_stg_s07_0_dog_00_dog10-clock1.png
subject-07,1,731,0.804291009902954,bottle,keyboard,0,0731_stg_s07_0_keyboard_00_keyboard2-bottle1.png
subject-07,1,732,1.42225694656372,bear,bottle,0,0732_stg_s07_0_bottle_00_bottle1-car1.png
subject-07,1,733,0.797838926315308,elephant,bird,0,0733_stg_s07_0_bird_00_bird6-elephant2.png
subject-07,1,734,1.10183000564575,dog,boat,0,0734_stg_s07_0_boat_00_boat9-cat3.png
subject-07,1,735,1.15971517562866,bird,bottle,0,0735_stg_s07_0_bottle_00_bottle2-car2.png
subject-07,1,736,1.14658999443054,cat,airplane,0,0736_stg_s07_0_airplane_00_airplane1-clock1.png
subject-07,1,737,1.30733609199524,cat,bear,0,0737_stg_s07_0_bear_00_bear3-bicycle2.png
subject-07,1,738,1.27343201637268,truck,bicycle,0,0738_stg_s07_0_bicycle_00_bicycle9-car1.png
subject-07,1,739,1.00139498710632,boat,bicycle,0,0739_stg_s07_0_bicycle_00_bicycle9-knife3.png
subject-07,1,740,0.661273956298828,elephant,keyboard,0,0740_stg_s07_0_keyboard_00_keyboard3-elephant2.png
subject-07,1,741,0.849548101425171,cat,airplane,0,0741_stg_s07_0_airplane_00_airplane5-dog3.png
subject-07,1,742,0.76307201385498,bird,keyboard,0,0742_stg_s07_0_keyboard_00_keyboard1-bear2.png
subject-07,1,743,1.50010108947754,car,clock,0,0743_stg_s07_0_clock_00_clock10-bird3.png
subject-07,1,744,0.986838817596436,oven,oven,0,0744_stg_s07_0_oven_00_oven2-boat3.png
subject-07,1,745,0.660657167434692,bottle,cat,0,0745_stg_s07_0_cat_00_cat10-bottle1.png
subject-07,1,746,0.688409090042114,bear,bear,0,0746_stg_s07_0_bear_00_bear3-chair2.png
subject-07,1,747,0.884017944335938,elephant,keyboard,0,0747_stg_s07_0_keyboard_00_keyboard3-bicycle2.png
subject-07,1,748,0.774509191513062,cat,elephant,0,0748_stg_s07_0_elephant_00_elephant7-bear3.png
subject-07,1,749,0.841107130050659,knife,cat,0,0749_stg_s07_0_cat_00_cat9-clock2.png
subject-07,1,750,1.50030112266541,dog,bottle,0,0750_stg_s07_0_bottle_00_bottle9-cat2.png
subject-07,1,751,1.14377093315125,truck,bird,0,0751_stg_s07_0_bird_00_bird6-boat2.png
subject-07,1,752,0.917656898498535,cat,bird,0,0752_stg_s07_0_bird_00_bird4-cat3.png
subject-07,1,753,1.26990795135498,airplane,knife,0,0753_stg_s07_0_knife_00_knife4-clock3.png
subject-07,1,754,1.01433205604553,car,knife,0,0754_stg_s07_0_knife_00_knife7-bottle3.png
subject-07,1,755,1.3012969493866,boat,airplane,0,0755_stg_s07_0_airplane_00_airplane9-knife3.png
subject-07,1,756,0.660964965820312,clock,boat,0,0756_stg_s07_0_boat_00_boat7-chair1.png
subject-07,1,757,0.781450986862183,oven,keyboard,0,0757_stg_s07_0_keyboard_00_keyboard5-knife2.png
subject-07,1,758,0.99111008644104,car,elephant,0,0758_stg_s07_0_elephant_00_elephant8-knife2.png
subject-07,1,759,1.4408061504364,truck,chair,0,0759_stg_s07_0_chair_00_chair6-truck2.png
subject-07,1,760,NaN,na,dog,0,0760_stg_s07_0_dog_00_dog1-bird1.png
subject-07,1,761,1.50000596046448,truck,bear,0,0761_stg_s07_0_bear_00_bear5-chair1.png
subject-07,1,762,1.35569405555725,bear,bicycle,0,0762_stg_s07_0_bicycle_00_bicycle9-airplane2.png
subject-07,1,763,0.713138103485107,cat,knife,0,0763_stg_s07_0_knife_00_knife1-dog1.png
subject-07,1,764,1.23889899253845,bicycle,elephant,0,0764_stg_s07_0_elephant_00_elephant4-car3.png
subject-07,1,765,0.968729972839355,bird,cat,0,0765_stg_s07_0_cat_00_cat9-dog2.png
subject-07,1,766,0.994279146194458,truck,bird,0,0766_stg_s07_0_bird_00_bird8-knife2.png
subject-07,1,767,NaN,na,chair,0,0767_stg_s07_0_chair_00_chair3-car3.png
subject-07,1,768,0.858442068099976,oven,bird,0,0768_stg_s07_0_bird_00_bird2-knife1.png
subject-07,1,769,1.08096790313721,bird,cat,0,0769_stg_s07_0_cat_00_cat6-bear1.png
subject-07,1,770,1.14668893814087,car,truck,0,0770_stg_s07_0_truck_00_truck6-clock2.png
subject-07,1,771,0.944453001022339,elephant,oven,0,0771_stg_s07_0_oven_00_oven7-elephant1.png
subject-07,1,772,1.03210997581482,elephant,dog,0,0772_stg_s07_0_dog_00_dog8-bear3.png
subject-07,1,773,0.837924957275391,truck,bear,0,0773_stg_s07_0_bear_00_bear6-boat3.png
subject-07,1,774,0.611783981323242,elephant,bear,0,0774_stg_s07_0_bear_00_bear4-elephant2.png
subject-07,1,775,0.991619110107422,cat,dog,0,0775_stg_s07_0_dog_00_dog3-bear3.png
subject-07,1,776,0.813987016677856,bird,truck,0,0776_stg_s07_0_truck_00_truck8-dog3.png
subject-07,1,777,1.32965707778931,dog,chair,0,0777_stg_s07_0_chair_00_chair10-cat1.png
subject-07,1,778,1.15156602859497,airplane,oven,0,0778_stg_s07_0_oven_00_oven10-boat2.png
subject-07,1,779,0.711384057998657,oven,clock,0,0779_stg_s07_0_clock_00_clock1-clock2.png
subject-07,1,780,0.861501932144165,bicycle,car,0,0780_stg_s07_0_car_00_car1-clock2.png
subject-07,1,781,1.04293298721313,knife,dog,0,0781_stg_s07_0_dog_00_dog3-boat1.png
subject-07,1,782,0.91508412361145,bird,airplane,0,0782_stg_s07_0_airplane_00_airplane5-bear2.png
subject-07,1,783,0.674358129501343,cat,car,0,0783_stg_s07_0_car_00_car7-dog3.png
subject-07,1,784,1.07002997398376,dog,cat,0,0784_stg_s07_0_cat_00_cat10-bird2.png
subject-07,1,785,1.09085512161255,car,bicycle,0,0785_stg_s07_0_bicycle_00_bicycle3-oven3.png
subject-07,1,786,1.01326704025269,truck,boat,0,0786_stg_s07_0_boat_00_boat3-car3.png
subject-07,1,787,0.901002883911133,cat,bottle,0,0787_stg_s07_0_bottle_00_bottle1-cat3.png
subject-07,1,788,0.744581937789917,elephant,keyboard,0,0788_stg_s07_0_keyboard_00_keyboard7-knife1.png
subject-07,1,789,0.854614019393921,oven,cat,0,0789_stg_s07_0_cat_00_cat3-truck3.png
subject-07,1,790,0.981416940689087,keyboard,dog,0,0790_stg_s07_0_dog_00_dog3-keyboard1.png
subject-07,1,791,0.917176008224487,cat,cat,0,0791_stg_s07_0_cat_00_cat6-clock3.png
subject-07,1,792,1.50029015541077,bear,chair,0,0792_stg_s07_0_chair_00_chair9-bottle3.png
subject-07,1,793,0.69535493850708,elephant,keyboard,0,0793_stg_s07_0_keyboard_00_keyboard2-elephant1.png
subject-07,1,794,1.49622106552124,dog,elephant,0,0794_stg_s07_0_elephant_00_elephant8-dog1.png
subject-07,1,795,0.953094959259033,truck,car,0,0795_stg_s07_0_car_00_car1-chair3.png
subject-07,1,796,0.643321990966797,elephant,keyboard,0,0796_stg_s07_0_keyboard_00_keyboard9-elephant2.png
subject-07,1,797,1.08502984046936,cat,cat,0,0797_stg_s07_0_cat_00_cat4-cat3.png
subject-07,1,798,0.766340970993042,cat,car,0,0798_stg_s07_0_car_00_car6-bear1.png
subject-07,1,799,0.94857382774353,bicycle,knife,0,0799_stg_s07_0_knife_00_knife2-bicycle3.png
subject-07,1,800,0.951826095581055,clock,bird,0,0800_stg_s07_0_bird_00_bird7-keyboard3.png
subject-07,1,801,NaN,na,cat,0,0801_stg_s07_0_cat_00_cat10-keyboard1.png
subject-07,1,802,1.11687707901001,clock,dog,0,0802_stg_s07_0_dog_00_dog4-keyboard2.png
subject-07,1,803,0.974864959716797,oven,airplane,0,0803_stg_s07_0_airplane_00_airplane4-bicycle2.png
subject-07,1,804,1.14771199226379,truck,bottle,0,0804_stg_s07_0_bottle_00_bottle3-chair3.png
subject-07,1,805,1.12199997901917,bird,airplane,0,0805_stg_s07_0_airplane_00_airplane8-bird1.png
subject-07,1,806,0.94145679473877,car,truck,0,0806_stg_s07_0_truck_00_truck9-truck3.png
subject-07,1,807,0.786089897155762,bicycle,dog,0,0807_stg_s07_0_dog_00_dog7-keyboard3.png
subject-07,1,808,0.952034950256348,oven,truck,0,0808_stg_s07_0_truck_00_truck1-clock3.png
subject-07,1,809,0.609802961349487,cat,keyboard,0,0809_stg_s07_0_keyboard_00_keyboard7-bear2.png
subject-07,1,810,1.02132797241211,bear,cat,0,0810_stg_s07_0_cat_00_cat5-bear2.png
subject-07,1,811,0.749186992645264,bottle,keyboard,0,0811_stg_s07_0_keyboard_00_keyboard4-bottle2.png
subject-07,1,812,0.723601102828979,boat,boat,0,0812_stg_s07_0_boat_00_boat8-knife1.png
subject-07,1,813,0.79745888710022,oven,bear,0,0813_stg_s07_0_bear_00_bear5-airplane3.png
subject-07,1,814,0.709025144577026,bottle,bear,0,0814_stg_s07_0_bear_00_bear6-bottle3.png
subject-07,1,815,0.820966005325317,cat,bicycle,0,0815_stg_s07_0_bicycle_00_bicycle10-dog3.png
subject-07,1,816,0.665366172790527,bird,bird,0,0816_stg_s07_0_bird_00_bird8-car2.png
subject-07,1,817,1.16081213951111,car,bottle,0,0817_stg_s07_0_bottle_00_bottle2-clock1.png
subject-07,1,818,1.19638299942017,boat,keyboard,0,0818_stg_s07_0_keyboard_00_keyboard10-keyboard1.png
subject-07,1,819,0.794105052947998,cat,bottle,0,0819_stg_s07_0_bottle_00_bottle7-bear1.png
subject-07,1,820,0.728457927703857,bottle,bicycle,0,0820_stg_s07_0_bicycle_00_bicycle1-bottle3.png
subject-07,1,821,0.947000026702881,knife,bird,0,0821_stg_s07_0_bird_00_bird5-keyboard2.png
subject-07,1,822,1.05210018157959,airplane,bicycle,0,0822_stg_s07_0_bicycle_00_bicycle3-bird1.png
subject-07,1,823,0.61735200881958,cat,knife,0,0823_stg_s07_0_knife_00_knife3-cat1.png
subject-07,1,824,0.844624042510986,oven,elephant,0,0824_stg_s07_0_elephant_00_elephant8-clock2.png
subject-07,1,825,1.00251698493958,truck,bicycle,0,0825_stg_s07_0_bicycle_00_bicycle2-bird3.png
subject-07,1,826,NaN,na,bear,0,0826_stg_s07_0_bear_00_bear10-car2.png
subject-07,1,827,0.79582691192627,clock,oven,0,0827_stg_s07_0_oven_00_oven8-chair1.png
subject-07,1,828,0.795079946517944,boat,bicycle,0,0828_stg_s07_0_bicycle_00_bicycle7-bear2.png
subject-07,1,829,0.714518070220947,cat,truck,0,0829_stg_s07_0_truck_00_truck10-car3.png
subject-07,1,830,0.803194046020508,cat,car,0,0830_stg_s07_0_car_00_car3-bird2.png
subject-07,1,831,0.814911127090454,bird,cat,0,0831_stg_s07_0_cat_00_cat1-cat3.png
subject-07,1,832,0.804392099380493,elephant,oven,0,0832_stg_s07_0_oven_00_oven6-elephant2.png
subject-07,1,833,0.594232082366943,bear,bird,0,0833_stg_s07_0_bird_00_bird3-truck3.png
subject-07,1,834,0.889394998550415,airplane,knife,0,0834_stg_s07_0_knife_00_knife10-oven3.png
subject-07,1,835,0.785112857818604,car,bear,0,0835_stg_s07_0_bear_00_bear3-airplane1.png
subject-07,1,836,0.691277027130127,cat,truck,0,0836_stg_s07_0_truck_00_truck4-bear1.png
subject-07,1,837,0.986826181411743,boat,car,0,0837_stg_s07_0_car_00_car8-knife2.png
subject-07,1,838,0.86897611618042,truck,bicycle,0,0838_stg_s07_0_bicycle_00_bicycle1-chair1.png
subject-07,1,839,0.919164180755615,bird,keyboard,0,0839_stg_s07_0_keyboard_00_keyboard1-dog3.png
subject-07,1,840,0.624846935272217,cat,oven,0,0840_stg_s07_0_oven_00_oven1-dog3.png
subject-07,1,841,0.788503885269165,dog,keyboard,0,0841_stg_s07_0_keyboard_00_keyboard9-chair2.png
subject-07,1,842,1.0545449256897,bear,boat,0,0842_stg_s07_0_boat_00_boat9-clock1.png
subject-07,1,843,0.651880025863647,bottle,bicycle,0,0843_stg_s07_0_bicycle_00_bicycle4-bottle1.png
subject-07,1,844,0.839468955993652,bicycle,bird,0,0844_stg_s07_0_bird_00_bird3-oven1.png
subject-07,1,845,0.56218695640564,cat,car,0,0845_stg_s07_0_car_00_car10-car1.png
subject-07,1,846,0.825643062591553,oven,keyboard,0,0846_stg_s07_0_keyboard_00_keyboard4-keyboard2.png
subject-07,1,847,0.883674144744873,elephant,truck,0,0847_stg_s07_0_truck_00_truck7-elephant2.png
subject-07,1,848,0.865331172943115,bird,chair,0,0848_stg_s07_0_chair_00_chair8-bear1.png
subject-07,1,849,0.868798017501831,boat,boat,0,0849_stg_s07_0_boat_00_boat2-airplane1.png
subject-07,1,850,1.09200191497803,dog,airplane,0,0850_stg_s07_0_airplane_00_airplane2-bear1.png
subject-07,1,851,1.03388404846191,bear,elephant,0,0851_stg_s07_0_elephant_00_elephant6-dog2.png
subject-07,1,852,0.778043031692505,car,clock,0,0852_stg_s07_0_clock_00_clock8-airplane2.png
subject-07,1,853,1.38936114311218,truck,dog,0,0853_stg_s07_0_dog_00_dog1-chair1.png
subject-07,1,854,0.741706848144531,bottle,bird,0,0854_stg_s07_0_bird_00_bird10-bicycle1.png
subject-07,1,855,0.728924989700317,clock,truck,0,0855_stg_s07_0_truck_00_truck1-car3.png
subject-07,1,856,0.672693014144897,bottle,knife,0,0856_stg_s07_0_knife_00_knife8-bottle3.png
subject-07,1,857,0.755239963531494,bicycle,clock,0,0857_stg_s07_0_clock_00_clock8-keyboard1.png
subject-07,1,858,0.950417995452881,elephant,boat,0,0858_stg_s07_0_boat_00_boat7-elephant3.png
subject-07,1,859,0.879303932189941,knife,truck,0,0859_stg_s07_0_truck_00_truck8-keyboard2.png
subject-07,1,860,0.552651166915894,cat,elephant,0,0860_stg_s07_0_elephant_00_elephant2-bear3.png
subject-07,1,861,0.826406002044678,bird,cat,0,0861_stg_s07_0_cat_00_cat2-cat1.png
subject-07,1,862,0.876181840896606,oven,truck,0,0862_stg_s07_0_truck_00_truck6-boat2.png
subject-07,1,863,0.658787965774536,bottle,bicycle,0,0863_stg_s07_0_bicycle_00_bicycle2-bottle1.png
subject-07,1,864,1.15435981750488,bicycle,truck,0,0864_stg_s07_0_truck_00_truck3-clock3.png
subject-07,1,865,1.09142994880676,car,bird,0,0865_stg_s07_0_bird_00_bird5-car2.png
subject-07,1,866,1.41223192214966,truck,elephant,0,0866_stg_s07_0_elephant_00_elephant8-bird2.png
subject-07,1,867,1.00891900062561,elephant,cat,0,0867_stg_s07_0_cat_00_cat2-elephant1.png
subject-07,1,868,0.850177049636841,car,boat,0,0868_stg_s07_0_boat_00_boat4-car3.png
subject-07,1,869,0.840106964111328,bear,car,0,0869_stg_s07_0_car_00_car8-bicycle2.png
subject-07,1,870,1.12055706977844,bird,clock,0,0870_stg_s07_0_clock_00_clock2-clock3.png
subject-07,1,871,1.41595101356506,truck,boat,0,0871_stg_s07_0_boat_00_boat1-truck3.png
subject-07,1,872,1.40642213821411,knife,clock,0,0872_stg_s07_0_clock_00_clock3-keyboard3.png
subject-07,1,873,1.08750104904175,bottle,dog,0,0873_stg_s07_0_dog_00_dog10-bicycle1.png
subject-07,1,874,1.11666703224182,knife,knife,0,0874_stg_s07_0_knife_00_knife7-chair2.png
subject-07,1,875,0.381241798400879,cat,knife,0,0875_stg_s07_0_knife_00_knife7-car2.png
subject-07,1,876,0.785549163818359,car,dog,0,0876_stg_s07_0_dog_00_dog10-car3.png
subject-07,1,877,0.851938962936401,bird,airplane,0,0877_stg_s07_0_airplane_00_airplane3-dog1.png
subject-07,1,878,1.01812601089478,car,car,0,0878_stg_s07_0_car_00_car2-car3.png
subject-07,1,879,1.01614499092102,truck,dog,0,0879_stg_s07_0_dog_00_dog7-car2.png
subject-07,1,880,1.00387287139893,truck,airplane,0,0880_stg_s07_0_airplane_00_airplane6-knife1.png
subject-07,1,881,1.45123100280762,cat,dog,0,0881_stg_s07_0_dog_00_dog5-bear3.png
subject-07,1,882,1.08763408660889,bicycle,elephant,0,0882_stg_s07_0_elephant_00_elephant6-truck3.png
subject-07,1,883,1.03921294212341,bird,dog,0,0883_stg_s07_0_dog_00_dog2-cat1.png
subject-07,1,884,0.745162010192871,boat,cat,0,0884_stg_s07_0_cat_00_cat7-knife2.png
subject-07,1,885,0.610969066619873,oven,cat,0,0885_stg_s07_0_cat_00_cat9-truck1.png
subject-07,1,886,0.682776927947998,bottle,cat,0,0886_stg_s07_0_cat_00_cat9-bottle2.png
subject-07,1,887,0.956845998764038,bird,bicycle,0,0887_stg_s07_0_bicycle_00_bicycle5-bottle3.png
subject-07,1,888,1.13074803352356,bear,clock,0,0888_stg_s07_0_clock_00_clock7-truck3.png
subject-07,1,889,0.996742010116577,bear,bear,0,0889_stg_s07_0_bear_00_bear1-bear3.png
subject-07,1,890,1.1761109828949,bear,bicycle,0,0890_stg_s07_0_bicycle_00_bicycle1-bear1.png
subject-07,1,891,0.90434718132019,cat,chair,0,0891_stg_s07_0_chair_00_chair10-airplane2.png
subject-07,1,892,1.16903901100159,knife,airplane,0,0892_stg_s07_0_airplane_00_airplane3-oven1.png
subject-07,1,893,1.31100702285767,bird,chair,0,0893_stg_s07_0_chair_00_chair9-dog2.png
subject-07,1,894,1.19867897033691,bicycle,chair,0,0894_stg_s07_0_chair_00_chair10-oven1.png
subject-07,1,895,0.766055107116699,car,bird,0,0895_stg_s07_0_bird_00_bird1-knife3.png
subject-07,1,896,0.931694984436035,boat,keyboard,0,0896_stg_s07_0_keyboard_00_keyboard7-clock3.png
subject-07,1,897,0.989978075027466,car,oven,0,0897_stg_s07_0_oven_00_oven7-keyboard1.png
subject-07,1,898,1.07207107543945,dog,chair,0,0898_stg_s07_0_chair_00_chair6-dog1.png
subject-07,1,899,1.11343693733215,dog,bicycle,0,0899_stg_s07_0_bicycle_00_bicycle1-truck1.png
subject-07,1,900,1.39344716072083,truck,boat,0,0900_stg_s07_0_boat_00_boat6-bear1.png
subject-07,1,901,1.01255488395691,car,truck,0,0901_stg_s07_0_truck_00_truck6-bicycle1.png
subject-07,1,902,1.40264296531677,cat,dog,0,0902_stg_s07_0_dog_00_dog9-cat1.png
subject-07,1,903,0.706748962402344,elephant,airplane,0,0903_stg_s07_0_airplane_00_airplane4-elephant1.png
subject-07,1,904,0.726526021957397,cat,truck,0,0904_stg_s07_0_truck_00_truck3-cat1.png
subject-07,1,905,0.623615980148315,elephant,bicycle,0,0905_stg_s07_0_bicycle_00_bicycle3-elephant2.png
subject-07,1,906,0.811224937438965,bird,bird,0,0906_stg_s07_0_bird_00_bird1-bear1.png
subject-07,1,907,0.847420930862427,boat,clock,0,0907_stg_s07_0_clock_00_clock3-car2.png
subject-07,1,908,0.919509172439575,car,chair,0,0908_stg_s07_0_chair_00_chair4-truck2.png
subject-07,1,909,0.854300975799561,truck,elephant,0,0909_stg_s07_0_elephant_00_elephant8-truck3.png
subject-07,1,910,1.08268404006958,clock,dog,0,0910_stg_s07_0_dog_00_dog10-oven2.png
subject-07,1,911,0.831768989562988,car,chair,0,0911_stg_s07_0_chair_00_chair5-truck3.png
subject-07,1,912,0.697314977645874,cat,car,0,0912_stg_s07_0_car_00_car2-cat3.png
subject-07,1,913,0.970716953277588,knife,airplane,0,0913_stg_s07_0_airplane_00_airplane9-keyboard2.png
subject-07,1,914,1.50036287307739,bird,truck,0,0914_stg_s07_0_truck_00_truck6-bear2.png
subject-07,1,915,0.786902904510498,cat,bottle,0,0915_stg_s07_0_bottle_00_bottle10-dog1.png
subject-07,1,916,0.660093069076538,bottle,bicycle,0,0916_stg_s07_0_bicycle_00_bicycle9-keyboard3.png
subject-07,1,917,0.679579019546509,car,airplane,0,0917_stg_s07_0_airplane_00_airplane9-car2.png
subject-07,1,918,0.97546911239624,truck,car,0,0918_stg_s07_0_car_00_car10-bottle3.png
subject-07,1,919,1.06306219100952,bird,boat,0,0919_stg_s07_0_boat_00_boat5-bicycle3.png
subject-07,1,920,0.78270697593689,boat,dog,0,0920_stg_s07_0_dog_00_dog5-knife2.png
subject-07,1,921,1.36157894134521,truck,clock,0,0921_stg_s07_0_clock_00_clock8-truck2.png
subject-07,1,922,0.943893909454346,car,elephant,0,0922_stg_s07_0_elephant_00_elephant7-knife2.png
subject-07,1,923,0.955008983612061,knife,keyboard,0,0923_stg_s07_0_keyboard_00_keyboard5-bird3.png
subject-07,1,924,NaN,na,boat,0,0924_stg_s07_0_boat_00_boat1-bicycle2.png
subject-07,1,925,0.737644910812378,bottle,bottle,0,0925_stg_s07_0_bottle_00_bottle4-bicycle1.png
subject-07,1,926,0.965560913085938,bottle,keyboard,0,0926_stg_s07_0_keyboard_00_keyboard7-bottle1.png
subject-07,1,927,0.952652931213379,bird,bicycle,0,0927_stg_s07_0_bicycle_00_bicycle7-cat1.png
subject-07,1,928,0.881713151931763,truck,elephant,0,0928_stg_s07_0_elephant_00_elephant8-boat2.png
subject-07,1,929,0.895544052124023,car,car,0,0929_stg_s07_0_car_00_car4-bird1.png
subject-07,1,930,0.735705852508545,boat,cat,0,0930_stg_s07_0_cat_00_cat2-knife3.png
subject-07,1,931,0.967084884643555,cat,bird,0,0931_stg_s07_0_bird_00_bird8-clock1.png
subject-07,1,932,1.16197395324707,bicycle,bottle,0,0932_stg_s07_0_bottle_00_bottle6-bird1.png
subject-07,1,933,0.830281972885132,dog,airplane,0,0933_stg_s07_0_airplane_00_airplane2-bottle1.png
subject-07,1,934,0.872104167938232,bottle,bear,0,0934_stg_s07_0_bear_00_bear1-bird2.png
subject-07,1,935,0.869632005691528,truck,knife,0,0935_stg_s07_0_knife_00_knife7-airplane3.png
subject-07,1,936,1.10370898246765,bottle,dog,0,0936_stg_s07_0_dog_00_dog10-bottle1.png
subject-07,1,937,0.931416034698486,cat,bird,0,0937_stg_s07_0_bird_00_bird5-cat2.png
subject-07,1,938,0.775767087936401,car,truck,0,0938_stg_s07_0_truck_00_truck7-keyboard3.png
subject-07,1,939,0.99572491645813,airplane,airplane,0,0939_stg_s07_0_airplane_00_airplane4-truck2.png
subject-07,1,940,0.783056974411011,boat,bear,0,0940_stg_s07_0_bear_00_bear2-knife2.png
subject-07,1,941,0.749032974243164,elephant,bicycle,0,0941_stg_s07_0_bicycle_00_bicycle7-elephant2.png
subject-07,1,942,1.08471989631653,bear,car,0,0942_stg_s07_0_car_00_car4-bear3.png
subject-07,1,943,1.03513717651367,truck,bird,0,0943_stg_s07_0_bird_00_bird1-chair2.png
subject-07,1,944,1.00784707069397,airplane,boat,0,0944_stg_s07_0_boat_00_boat9-chair2.png
subject-07,1,945,1.05757713317871,oven,bird,0,0945_stg_s07_0_bird_00_bird1-truck1.png
subject-07,1,946,1.08639311790466,keyboard,oven,0,0946_stg_s07_0_oven_00_oven2-truck3.png
subject-07,1,947,1.30607318878174,bicycle,elephant,0,0947_stg_s07_0_elephant_00_elephant7-airplane3.png
subject-07,1,948,1.06450510025024,bird,airplane,0,0948_stg_s07_0_airplane_00_airplane4-bird3.png
subject-07,1,949,1.04580092430115,truck,bottle,0,0949_stg_s07_0_bottle_00_bottle7-boat3.png
subject-07,1,950,0.789254903793335,boat,truck,0,0950_stg_s07_0_truck_00_truck5-knife3.png
subject-07,1,951,0.855116844177246,clock,chair,0,0951_stg_s07_0_chair_00_chair7-chair1.png
subject-07,1,952,1.01307201385498,car,clock,0,0952_stg_s07_0_clock_00_clock3-bicycle2.png
subject-07,1,953,0.640980958938599,car,bicycle,0,0953_stg_s07_0_bicycle_00_bicycle5-car3.png
subject-07,1,954,1.36114001274109,cat,oven,0,0954_stg_s07_0_oven_00_oven3-clock3.png
subject-07,1,955,1.17334890365601,boat,truck,0,0955_stg_s07_0_truck_00_truck5-airplane2.png
subject-07,1,956,0.670467853546143,boat,oven,0,0956_stg_s07_0_oven_00_oven10-airplane2.png
subject-07,1,957,0.704812049865723,bottle,car,0,0957_stg_s07_0_car_00_car6-knife1.png
subject-07,1,958,1.03299808502197,cat,car,0,0958_stg_s07_0_car_00_car9-bird1.png
subject-07,1,959,1.19865822792053,bird,bear,0,0959_stg_s07_0_bear_00_bear10-cat2.png
subject-07,1,960,1.17838001251221,truck,cat,0,0960_stg_s07_0_cat_00_cat4-car2.png
subject-07,1,961,0.846369028091431,elephant,clock,0,0961_stg_s07_0_clock_00_clock4-elephant2.png
subject-07,1,962,1.0849781036377,car,keyboard,0,0962_stg_s07_0_keyboard_00_keyboard10-car1.png
subject-07,1,963,0.628423929214478,cat,chair,0,0963_stg_s07_0_chair_00_chair8-clock3.png
subject-07,1,964,0.878453969955444,elephant,oven,0,0964_stg_s07_0_oven_00_oven4-elephant3.png
subject-07,1,965,1.06083393096924,bear,car,0,0965_stg_s07_0_car_00_car9-bicycle2.png
subject-07,1,966,0.918304920196533,cat,car,0,0966_stg_s07_0_car_00_car5-bear3.png
subject-07,1,967,1.40668797492981,bird,airplane,0,0967_stg_s07_0_airplane_00_airplane10-airplane1.png
subject-07,1,968,1.42658019065857,car,bird,0,0968_stg_s07_0_bird_00_bird3-boat3.png
subject-07,1,969,1.23271679878235,car,truck,0,0969_stg_s07_0_truck_00_truck1-bird1.png
subject-07,1,970,1.3062789440155,car,bottle,0,0970_stg_s07_0_bottle_00_bottle2-bottle3.png
subject-07,1,971,0.835447072982788,keyboard,keyboard,0,0971_stg_s07_0_keyboard_00_keyboard9-bird1.png
subject-07,1,972,1.33936715126038,truck,dog,0,0972_stg_s07_0_dog_00_dog4-truck2.png
subject-07,1,973,1.06707000732422,airplane,knife,0,0973_stg_s07_0_knife_00_knife4-keyboard1.png
subject-07,1,974,NaN,na,dog,0,0974_stg_s07_0_dog_00_dog1-bear1.png
subject-07,1,975,0.966689825057983,bicycle,elephant,0,0975_stg_s07_0_elephant_00_elephant3-oven1.png
subject-07,1,976,0.68112587928772,bicycle,bicycle,0,0976_stg_s07_0_bicycle_00_bicycle4-car2.png
subject-07,1,977,0.938985824584961,knife,bird,0,0977_stg_s07_0_bird_00_bird1-oven1.png
subject-07,1,978,0.966631174087524,cat,oven,0,0978_stg_s07_0_oven_00_oven6-bear2.png
subject-07,1,979,0.786410808563232,bottle,dog,0,0979_stg_s07_0_dog_00_dog2-bottle2.png
subject-07,1,980,0.574031114578247,bird,boat,0,0980_stg_s07_0_boat_00_boat6-car1.png
subject-07,1,981,0.931703090667725,elephant,bear,0,0981_stg_s07_0_bear_00_bear8-bicycle3.png
subject-07,1,982,1.191565990448,truck,bicycle,0,0982_stg_s07_0_bicycle_00_bicycle9-bird3.png
subject-07,1,983,0.766341209411621,car,bicycle,0,0983_stg_s07_0_bicycle_00_bicycle6-car2.png
subject-07,1,984,0.648263931274414,boat,knife,0,0984_stg_s07_0_knife_00_knife10-keyboard3.png
subject-07,1,985,1.32767415046692,elephant,bicycle,0,0985_stg_s07_0_bicycle_00_bicycle10-elephant2.png
subject-07,1,986,0.779748201370239,bird,bottle,0,0986_stg_s07_0_bottle_00_bottle7-cat2.png
subject-07,1,987,0.762392997741699,car,car,0,0987_stg_s07_0_car_00_car8-clock2.png
subject-07,1,988,0.996355056762695,truck,cat,0,0988_stg_s07_0_cat_00_cat1-oven1.png
subject-07,1,989,0.769551992416382,boat,truck,0,0989_stg_s07_0_truck_00_truck7-chair2.png
subject-07,1,990,1.18126487731934,boat,elephant,0,0990_stg_s07_0_elephant_00_elephant7-clock2.png
subject-07,1,991,NaN,na,bottle,0,0991_stg_s07_0_bottle_00_bottle8-bottle3.png
subject-07,1,992,0.954076051712036,boat,airplane,0,0992_stg_s07_0_airplane_00_airplane4-airplane1.png
subject-07,1,993,0.766147136688232,cat,bottle,0,0993_stg_s07_0_bottle_00_bottle3-boat3.png
subject-07,1,994,0.672096967697144,cat,bear,0,0994_stg_s07_0_bear_00_bear4-clock3.png
subject-07,1,995,0.922147989273071,bird,boat,0,0995_stg_s07_0_boat_00_boat5-clock3.png
subject-07,1,996,0.854923963546753,car,airplane,0,0996_stg_s07_0_airplane_00_airplane9-boat1.png
subject-07,1,997,1.06956100463867,elephant,boat,0,0997_stg_s07_0_boat_00_boat8-elephant1.png
subject-07,1,998,0.789441823959351,bear,bear,0,0998_stg_s07_0_bear_00_bear1-chair2.png
subject-07,1,999,0.641418933868408,cat,truck,0,0999_stg_s07_0_truck_00_truck1-bear1.png
subject-07,1,1000,0.883989095687866,elephant,chair,0,1000_stg_s07_0_chair_00_chair1-elephant1.png
subject-07,1,1001,0.79529595375061,bird,bicycle,0,1001_stg_s07_0_bicycle_00_bicycle2-dog1.png
subject-07,1,1002,1.34536719322205,knife,bicycle,0,1002_stg_s07_0_bicycle_00_bicycle8-bear2.png
subject-07,1,1003,1.05129408836365,dog,cat,0,1003_stg_s07_0_cat_00_cat7-dog3.png
subject-07,1,1004,0.814706087112427,elephant,bear,0,1004_stg_s07_0_bear_00_bear1-elephant1.png
subject-07,1,1005,1.30249214172363,boat,oven,0,1005_stg_s07_0_oven_00_oven6-bird1.png
subject-07,1,1006,0.832438945770264,bottle,elephant,0,1006_stg_s07_0_elephant_00_elephant5-bottle2.png
subject-07,1,1007,0.93635892868042,elephant,bottle,0,1007_stg_s07_0_bottle_00_bottle8-elephant3.png
subject-07,1,1008,0.718697071075439,bicycle,keyboard,0,1008_stg_s07_0_keyboard_00_keyboard4-truck3.png
subject-07,1,1009,0.698000192642212,bottle,cat,0,1009_stg_s07_0_cat_00_cat2-truck3.png
subject-07,1,1010,0.955823183059692,boat,knife,0,1010_stg_s07_0_knife_00_knife6-clock2.png
subject-07,1,1011,1.092129945755,cat,bear,0,1011_stg_s07_0_bear_00_bear6-bear1.png
subject-07,1,1012,1.09564185142517,truck,dog,0,1012_stg_s07_0_dog_00_dog2-knife3.png
subject-07,1,1013,1.29934692382812,car,bicycle,0,1013_stg_s07_0_bicycle_00_bicycle1-knife3.png
subject-07,1,1014,0.866320848464966,car,bottle,0,1014_stg_s07_0_bottle_00_bottle9-truck1.png
subject-07,1,1015,0.86243200302124,boat,bird,0,1015_stg_s07_0_bird_00_bird5-oven3.png
subject-07,1,1016,0.929557085037231,bird,bottle,0,1016_stg_s07_0_bottle_00_bottle3-knife3.png
subject-07,1,1017,0.910757064819336,keyboard,keyboard,0,1017_stg_s07_0_keyboard_00_keyboard8-oven1.png
subject-07,1,1018,0.930937051773071,car,keyboard,0,1018_stg_s07_0_keyboard_00_keyboard3-car2.png
subject-07,1,1019,0.757011890411377,truck,truck,0,1019_stg_s07_0_truck_00_truck9-chair3.png
subject-07,1,1020,1.16092991828918,elephant,elephant,0,1020_stg_s07_0_elephant_00_elephant2-elephant3.png
subject-07,1,1021,1.11860704421997,knife,truck,0,1021_stg_s07_0_truck_00_truck6-bottle3.png
subject-07,1,1022,0.840421915054321,bicycle,clock,0,1022_stg_s07_0_clock_00_clock9-chair3.png
subject-07,1,1023,0.744542837142944,car,bear,0,1023_stg_s07_0_bear_00_bear8-boat2.png
subject-07,1,1024,0.818983793258667,cat,truck,0,1024_stg_s07_0_truck_00_truck7-oven2.png
subject-07,1,1025,0.946585893630981,car,knife,0,1025_stg_s07_0_knife_00_knife1-truck2.png
subject-07,1,1026,0.79820704460144,cat,car,0,1026_stg_s07_0_car_00_car3-dog2.png
subject-07,1,1027,0.688965082168579,truck,airplane,0,1027_stg_s07_0_airplane_00_airplane1-bicycle2.png
subject-07,1,1028,0.954589128494263,elephant,bicycle,0,1028_stg_s07_0_bicycle_00_bicycle9-bear1.png
subject-07,1,1029,0.93665599822998,car,knife,0,1029_stg_s07_0_knife_00_knife8-truck3.png
subject-07,1,1030,0.794739007949829,boat,car,0,1030_stg_s07_0_car_00_car6-boat1.png
subject-07,1,1031,0.989758014678955,truck,clock,0,1031_stg_s07_0_clock_00_clock7-car1.png
subject-07,1,1032,0.626069784164429,cat,bicycle,0,1032_stg_s07_0_bicycle_00_bicycle9-cat3.png
subject-07,1,1033,0.762087106704712,airplane,car,0,1033_stg_s07_0_car_00_car4-bicycle3.png
subject-07,1,1034,0.697967052459717,clock,truck,0,1034_stg_s07_0_truck_00_truck6-truck2.png
subject-07,1,1035,0.596529960632324,bird,car,0,1035_stg_s07_0_car_00_car7-clock1.png
subject-07,1,1036,1.48452401161194,car,car,0,1036_stg_s07_0_car_00_car7-oven2.png
subject-07,1,1037,1.50011992454529,truck,oven,0,1037_stg_s07_0_oven_00_oven9-airplane2.png
subject-07,1,1038,0.803189992904663,bottle,keyboard,0,1038_stg_s07_0_keyboard_00_keyboard5-bottle1.png
subject-07,1,1039,0.579030990600586,boat,chair,0,1039_stg_s07_0_chair_00_chair5-clock2.png
subject-07,1,1040,0.620681047439575,cat,elephant,0,1040_stg_s07_0_elephant_00_elephant9-airplane2.png
subject-07,1,1041,1.24645519256592,oven,car,0,1041_stg_s07_0_car_00_car2-chair1.png
subject-07,1,1042,0.906255006790161,bottle,truck,0,1042_stg_s07_0_truck_00_truck8-bottle2.png
subject-07,1,1043,0.695688009262085,bicycle,dog,0,1043_stg_s07_0_dog_00_dog10-keyboard2.png
subject-07,1,1044,1.32162809371948,car,knife,0,1044_stg_s07_0_knife_00_knife7-bird3.png
subject-07,1,1045,0.835795879364014,bottle,truck,0,1045_stg_s07_0_truck_00_truck10-bicycle1.png
subject-07,1,1046,0.701742172241211,bottle,cat,0,1046_stg_s07_0_cat_00_cat5-bottle1.png
subject-07,1,1047,0.730299949645996,bottle,dog,0,1047_stg_s07_0_dog_00_dog8-bottle2.png
subject-07,1,1048,0.774046897888184,boat,dog,0,1048_stg_s07_0_dog_00_dog3-truck2.png
subject-07,1,1049,0.854241847991943,bird,cat,0,1049_stg_s07_0_cat_00_cat4-chair2.png
subject-07,1,1050,NaN,na,bicycle,0,1050_stg_s07_0_bicycle_00_bicycle2-car2.png
subject-07,1,1051,NaN,na,clock,0,1051_stg_s07_0_clock_00_clock6-oven1.png
subject-07,1,1052,0.727823972702026,cat,bottle,0,1052_stg_s07_0_bottle_00_bottle5-airplane1.png
subject-07,1,1053,0.785860061645508,knife,oven,0,1053_stg_s07_0_oven_00_oven3-knife1.png
subject-07,1,1054,1.02195811271667,oven,oven,0,1054_stg_s07_0_oven_00_oven2-bird2.png
subject-07,1,1055,0.758493900299072,elephant,bird,0,1055_stg_s07_0_bird_00_bird9-elephant2.png
subject-07,1,1056,0.816142082214355,elephant,airplane,0,1056_stg_s07_0_airplane_00_airplane7-truck1.png
subject-07,1,1057,0.789889097213745,bear,bottle,0,1057_stg_s07_0_bottle_00_bottle7-oven2.png
subject-07,1,1058,1.03167796134949,bottle,truck,0,1058_stg_s07_0_truck_00_truck9-boat3.png
subject-07,1,1059,0.767224073410034,boat,bear,0,1059_stg_s07_0_bear_00_bear6-clock1.png
subject-07,1,1060,1.39314794540405,cat,dog,0,1060_stg_s07_0_dog_00_dog1-dog2.png
subject-07,1,1061,0.98286509513855,airplane,keyboard,0,1061_stg_s07_0_keyboard_00_keyboard4-clock2.png
subject-07,1,1062,0.650048017501831,boat,boat,0,1062_stg_s07_0_boat_00_boat7-clock3.png
subject-07,1,1063,0.992536783218384,car,elephant,0,1063_stg_s07_0_elephant_00_elephant6-oven1.png
subject-07,1,1064,0.950903177261353,bird,knife,0,1064_stg_s07_0_knife_00_knife4-cat2.png
subject-07,1,1065,0.97273588180542,bottle,clock,0,1065_stg_s07_0_clock_00_clock6-bicycle1.png
subject-07,1,1066,1.13126611709595,elephant,dog,0,1066_stg_s07_0_dog_00_dog6-elephant2.png
subject-07,1,1067,0.929079055786133,knife,elephant,0,1067_stg_s07_0_elephant_00_elephant9-boat3.png
subject-07,1,1068,1.14619898796082,car,airplane,0,1068_stg_s07_0_airplane_00_airplane10-car3.png
subject-07,1,1069,1.0733380317688,bicycle,boat,0,1069_stg_s07_0_boat_00_boat10-truck1.png
subject-07,1,1070,0.955563068389893,airplane,clock,0,1070_stg_s07_0_clock_00_clock10-boat2.png
subject-07,1,1071,0.875306129455566,dog,cat,0,1071_stg_s07_0_cat_00_cat9-chair2.png
subject-07,1,1072,0.919173002243042,car,bicycle,0,1072_stg_s07_0_bicycle_00_bicycle4-airplane1.png
subject-07,1,1073,1.01590895652771,truck,bicycle,0,1073_stg_s07_0_bicycle_00_bicycle10-airplane2.png
subject-07,1,1074,1.02795219421387,car,keyboard,0,1074_stg_s07_0_keyboard_00_keyboard5-bicycle1.png
subject-07,1,1075,0.772026062011719,elephant,chair,0,1075_stg_s07_0_chair_00_chair7-elephant1.png
subject-07,1,1076,1.02188611030579,elephant,bottle,0,1076_stg_s07_0_bottle_00_bottle8-knife1.png
subject-07,1,1077,0.890207052230835,cat,airplane,0,1077_stg_s07_0_airplane_00_airplane7-airplane3.png
subject-07,1,1078,0.909759998321533,cat,elephant,0,1078_stg_s07_0_elephant_00_elephant8-cat1.png
subject-07,1,1079,0.921723127365112,car,cat,0,1079_stg_s07_0_cat_00_cat7-airplane2.png
subject-07,1,1080,0.940765857696533,knife,truck,0,1080_stg_s07_0_truck_00_truck6-oven3.png
subject-07,1,1081,0.923755168914795,bear,bear,0,1081_stg_s07_0_bear_00_bear2-airplane1.png
subject-07,1,1082,0.905519008636475,car,dog,0,1082_stg_s07_0_dog_00_dog5-oven1.png
subject-07,1,1083,0.922807931900024,truck,airplane,0,1083_stg_s07_0_airplane_00_airplane3-clock1.png
subject-07,1,1084,1.42189192771912,bicycle,car,0,1084_stg_s07_0_car_00_car9-truck3.png
subject-07,1,1085,1.00362300872803,boat,truck,0,1085_stg_s07_0_truck_00_truck6-cat2.png
subject-07,1,1086,0.731383085250854,elephant,bicycle,0,1086_stg_s07_0_bicycle_00_bicycle1-elephant2.png
subject-07,1,1087,0.751439094543457,clock,elephant,0,1087_stg_s07_0_elephant_00_elephant2-clock1.png
subject-07,1,1088,1.14160490036011,car,bicycle,0,1088_stg_s07_0_bicycle_00_bicycle7-truck3.png
subject-07,1,1089,1.07550597190857,keyboard,truck,0,1089_stg_s07_0_truck_00_truck2-bicycle2.png
subject-07,1,1090,0.842959880828857,elephant,keyboard,0,1090_stg_s07_0_keyboard_00_keyboard6-boat2.png
subject-07,1,1091,1.3452730178833,truck,bear,0,1091_stg_s07_0_bear_00_bear9-knife2.png
subject-07,1,1092,1.10135889053345,car,bird,0,1092_stg_s07_0_bird_00_bird9-keyboard1.png
subject-07,1,1093,0.804887056350708,boat,knife,0,1093_stg_s07_0_knife_00_knife3-knife1.png
subject-07,1,1094,0.940845966339111,bottle,car,0,1094_stg_s07_0_car_00_car5-bottle1.png
subject-07,1,1095,0.760231971740723,airplane,chair,0,1095_stg_s07_0_chair_00_chair8-knife2.png
subject-07,1,1096,0.804808855056763,car,cat,0,1096_stg_s07_0_cat_00_cat6-oven1.png
subject-07,1,1097,1.43640303611755,truck,bird,0,1097_stg_s07_0_bird_00_bird6-airplane2.png
subject-07,1,1098,NaN,na,truck,0,1098_stg_s07_0_truck_00_truck5-bird2.png
subject-07,1,1099,1.01461410522461,cat,bear,0,1099_stg_s07_0_bear_00_bear3-dog3.png
subject-07,1,1100,0.834748029708862,keyboard,bear,0,1100_stg_s07_0_bear_00_bear10-truck1.png
subject-07,1,1101,0.821887969970703,oven,chair,0,1101_stg_s07_0_chair_00_chair4-oven2.png
subject-07,1,1102,0.703791856765747,bicycle,bird,0,1102_stg_s07_0_bird_00_bird9-chair1.png
subject-07,1,1103,0.769622802734375,bird,bottle,0,1103_stg_s07_0_bottle_00_bottle5-bird3.png
subject-07,1,1104,0.675758838653564,bottle,car,0,1104_stg_s07_0_car_00_car6-bottle1.png
subject-07,1,1105,1.07140898704529,boat,knife,0,1105_stg_s07_0_knife_00_knife1-car3.png
subject-07,1,1106,1.02921104431152,car,bicycle,0,1106_stg_s07_0_bicycle_00_bicycle3-truck3.png
subject-07,1,1107,0.757102966308594,truck,keyboard,0,1107_stg_s07_0_keyboard_00_keyboard8-truck3.png
subject-07,1,1108,1.07700300216675,cat,airplane,0,1108_stg_s07_0_airplane_00_airplane10-cat2.png
