subj,session,trial,rt,object_response,category,condition,imagename
subject-10,1,1,0.702475070953369,clock,clock,0,0001_stg_s10_0_clock_00_clock2-knife1.png
subject-10,1,2,1.5001699924469,boat,chair,0,0002_stg_s10_0_chair_00_chair5-boat3.png
subject-10,1,3,1.15834498405457,car,airplane,0,0003_stg_s10_0_airplane_00_airplane3-car1.png
subject-10,1,4,NaN,na,bottle,0,0004_stg_s10_0_bottle_00_bottle3-knife3.png
subject-10,1,5,1.45393490791321,boat,cat,0,0005_stg_s10_0_cat_00_cat7-truck2.png
subject-10,1,6,NaN,na,knife,0,0006_stg_s10_0_knife_00_knife6-knife1.png
subject-10,1,7,1.50007104873657,clock,keyboard,0,0007_stg_s10_0_keyboard_00_keyboard3-clock3.png
subject-10,1,8,1.50038123130798,truck,truck,0,0008_stg_s10_0_truck_00_truck3-chair2.png
subject-10,1,9,1.16153502464294,oven,oven,0,0009_stg_s10_0_oven_00_oven1-boat3.png
subject-10,1,10,NaN,na,bird,0,0010_stg_s10_0_bird_00_bird10-chair1.png
subject-10,1,11,1.40339493751526,bird,bird,0,0011_stg_s10_0_bird_00_bird5-airplane3.png
subject-10,1,12,NaN,na,boat,0,0012_stg_s10_0_boat_00_boat10-oven1.png
subject-10,1,13,0.80640697479248,bicycle,car,0,0013_stg_s10_0_car_00_car3-bottle3.png
subject-10,1,14,NaN,na,car,0,0014_stg_s10_0_car_00_car8-dog1.png
subject-10,1,15,NaN,na,chair,0,0015_stg_s10_0_chair_00_chair5-bicycle1.png
subject-10,1,16,1.47299599647522,boat,bear,0,0016_stg_s10_0_bear_00_bear5-chair1.png
subject-10,1,17,NaN,na,clock,0,0017_stg_s10_0_clock_00_clock4-car2.png
subject-10,1,18,NaN,na,cat,0,0018_stg_s10_0_cat_00_cat4-dog3.png
subject-10,1,19,0.836800098419189,truck,knife,0,0019_stg_s10_0_knife_00_knife4-keyboard1.png
subject-10,1,20,0.897271156311035,boat,chair,0,0020_stg_s10_0_chair_00_chair1-elephant1.png
subject-10,1,21,1.47062397003174,oven,keyboard,0,0021_stg_s10_0_keyboard_00_keyboard1-car3.png
subject-10,1,22,1.44622802734375,chair,cat,0,0022_stg_s10_0_cat_00_cat3-oven2.png
subject-10,1,23,1.1686577796936,chair,car,0,0023_stg_s10_0_car_00_car5-bottle1.png
subject-10,1,24,0.91395092010498,airplane,bicycle,0,0024_stg_s10_0_bicycle_00_bicycle3-truck3.png
subject-10,1,25,0.997360944747925,bicycle,keyboard,0,0025_stg_s10_0_keyboard_00_keyboard1-airplane2.png
subject-10,1,26,1.13265109062195,keyboard,clock,0,0026_stg_s10_0_clock_00_clock7-truck3.png
subject-10,1,27,1.24331283569336,dog,dog,0,0027_stg_s10_0_dog_00_dog5-elephant1.png
subject-10,1,28,NaN,na,chair,0,0028_stg_s10_0_chair_00_chair9-bottle3.png
subject-10,1,29,NaN,na,cat,0,0029_stg_s10_0_cat_00_cat7-bottle1.png
subject-10,1,30,1.29866909980774,boat,knife,0,0030_stg_s10_0_knife_00_knife1-dog1.png
subject-10,1,31,0.913058042526245,chair,dog,0,0031_stg_s10_0_dog_00_dog6-bicycle1.png
subject-10,1,32,1.17895221710205,chair,clock,0,0032_stg_s10_0_clock_00_clock2-elephant2.png
subject-10,1,33,1.01694393157959,boat,knife,0,0033_stg_s10_0_knife_00_knife1-bird2.png
subject-10,1,34,1.02332806587219,boat,bottle,0,0034_stg_s10_0_bottle_00_bottle3-airplane2.png
subject-10,1,35,1.06695294380188,elephant,bear,0,0035_stg_s10_0_bear_00_bear8-bear1.png
subject-10,1,36,1.33238196372986,truck,truck,0,0036_stg_s10_0_truck_00_truck2-elephant1.png
subject-10,1,37,1.39946508407593,car,dog,0,0037_stg_s10_0_dog_00_dog10-clock1.png
subject-10,1,38,1.25386810302734,airplane,oven,0,0038_stg_s10_0_oven_00_oven1-dog3.png
subject-10,1,39,1.11302185058594,oven,keyboard,0,0039_stg_s10_0_keyboard_00_keyboard9-bird1.png
subject-10,1,40,1.02653908729553,bicycle,cat,0,0040_stg_s10_0_cat_00_cat5-knife2.png
subject-10,1,41,NaN,na,clock,0,0041_stg_s10_0_clock_00_clock5-chair3.png
subject-10,1,42,1.15732598304749,oven,bird,0,0042_stg_s10_0_bird_00_bird5-chair1.png
subject-10,1,43,1.03318810462952,airplane,airplane,0,0043_stg_s10_0_airplane_00_airplane2-cat1.png
subject-10,1,44,1.15824198722839,bicycle,oven,0,0044_stg_s10_0_oven_00_oven10-oven3.png
subject-10,1,45,1.47261190414429,chair,truck,0,0045_stg_s10_0_truck_00_truck8-cat2.png
subject-10,1,46,1.07878708839417,keyboard,chair,0,0046_stg_s10_0_chair_00_chair5-car1.png
subject-10,1,47,0.854405879974365,car,knife,0,0047_stg_s10_0_knife_00_knife9-chair1.png
subject-10,1,48,0.997672080993652,boat,elephant,0,0048_stg_s10_0_elephant_00_elephant9-elephant3.png
subject-10,1,49,0.765833139419556,bird,car,0,0049_stg_s10_0_car_00_car8-knife2.png
subject-10,1,50,1.41952419281006,bear,oven,0,0050_stg_s10_0_oven_00_oven4-car1.png
subject-10,1,51,1.07995319366455,clock,clock,0,0051_stg_s10_0_clock_00_clock5-bicycle1.png
subject-10,1,52,0.894186973571777,boat,boat,0,0052_stg_s10_0_boat_00_boat3-keyboard2.png
subject-10,1,53,1.16985201835632,car,dog,0,0053_stg_s10_0_dog_00_dog1-boat3.png
subject-10,1,54,1.13878488540649,bicycle,bottle,0,0054_stg_s10_0_bottle_00_bottle10-bear2.png
subject-10,1,55,1.1505880355835,knife,airplane,0,0055_stg_s10_0_airplane_00_airplane6-chair3.png
subject-10,1,56,1.04310297966003,keyboard,bicycle,0,0056_stg_s10_0_bicycle_00_bicycle9-cat3.png
subject-10,1,57,0.878583908081055,chair,knife,0,0057_stg_s10_0_knife_00_knife4-car2.png
subject-10,1,58,0.921755075454712,boat,keyboard,0,0058_stg_s10_0_keyboard_00_keyboard6-boat2.png
subject-10,1,59,1.10327005386353,bottle,cat,0,0059_stg_s10_0_cat_00_cat3-truck3.png
subject-10,1,60,1.23970890045166,oven,knife,0,0060_stg_s10_0_knife_00_knife7-airplane3.png
subject-10,1,61,1.23612904548645,boat,bear,0,0061_stg_s10_0_bear_00_bear3-bicycle2.png
subject-10,1,62,1.07988905906677,boat,oven,0,0062_stg_s10_0_oven_00_oven9-car2.png
subject-10,1,63,0.992999076843262,car,boat,0,0063_stg_s10_0_boat_00_boat7-truck2.png
subject-10,1,64,1.50013279914856,oven,bottle,0,0064_stg_s10_0_bottle_00_bottle1-bird3.png
subject-10,1,65,1.48581695556641,cat,elephant,0,0065_stg_s10_0_elephant_00_elephant7-clock2.png
subject-10,1,66,0.853332042694092,elephant,elephant,0,0066_stg_s10_0_elephant_00_elephant10-elephant1.png
subject-10,1,67,1.50021886825562,airplane,oven,0,0067_stg_s10_0_oven_00_oven5-bottle3.png
subject-10,1,68,1.34584999084473,bicycle,clock,0,0068_stg_s10_0_clock_00_clock1-boat3.png
subject-10,1,69,1.40361785888672,cat,dog,0,0069_stg_s10_0_dog_00_dog4-chair1.png
subject-10,1,70,1.07214593887329,keyboard,keyboard,0,0070_stg_s10_0_keyboard_00_keyboard5-knife2.png
subject-10,1,71,0.82403302192688,elephant,bird,0,0071_stg_s10_0_bird_00_bird10-elephant2.png
subject-10,1,72,1.32114410400391,clock,clock,0,0072_stg_s10_0_clock_00_clock7-bicycle1.png
subject-10,1,73,1.50038290023804,bottle,boat,0,0073_stg_s10_0_boat_00_boat5-clock3.png
subject-10,1,74,1.42992401123047,elephant,car,0,0074_stg_s10_0_car_00_car10-bicycle2.png
subject-10,1,75,1.31127119064331,car,car,0,0075_stg_s10_0_car_00_car4-boat1.png
subject-10,1,76,0.68752384185791,elephant,bottle,0,0076_stg_s10_0_bottle_00_bottle7-elephant2.png
subject-10,1,77,NaN,na,elephant,0,0077_stg_s10_0_elephant_00_elephant8-dog1.png
subject-10,1,78,1.50025606155396,airplane,car,0,0078_stg_s10_0_car_00_car8-airplane3.png
subject-10,1,79,NaN,na,clock,0,0079_stg_s10_0_clock_00_clock6-bird3.png
subject-10,1,80,1.36376094818115,elephant,keyboard,0,0080_stg_s10_0_keyboard_00_keyboard6-elephant1.png
subject-10,1,81,1.30044007301331,bear,bird,0,0081_stg_s10_0_bird_00_bird10-bear2.png
subject-10,1,82,0.929903984069824,boat,truck,0,0082_stg_s10_0_truck_00_truck2-keyboard1.png
subject-10,1,83,1.50013208389282,dog,clock,0,0083_stg_s10_0_clock_00_clock3-cat1.png
subject-10,1,84,1.26884293556213,cat,keyboard,0,0084_stg_s10_0_keyboard_00_keyboard7-boat2.png
subject-10,1,85,1.34257006645203,elephant,bottle,0,0085_stg_s10_0_bottle_00_bottle8-bird1.png
subject-10,1,86,1.01876306533813,car,knife,0,0086_stg_s10_0_knife_00_knife2-truck2.png
subject-10,1,87,1.18000817298889,bottle,bird,0,0087_stg_s10_0_bird_00_bird3-bottle2.png
subject-10,1,88,1.16121196746826,elephant,cat,0,0088_stg_s10_0_cat_00_cat3-elephant2.png
subject-10,1,89,1.38152599334717,airplane,oven,0,0089_stg_s10_0_oven_00_oven2-chair1.png
subject-10,1,90,1.01736807823181,keyboard,keyboard,0,0090_stg_s10_0_keyboard_00_keyboard3-cat1.png
subject-10,1,91,1.44385814666748,truck,dog,0,0091_stg_s10_0_dog_00_dog9-bear3.png
subject-10,1,92,NaN,na,knife,0,0092_stg_s10_0_knife_00_knife10-elephant3.png
subject-10,1,93,1.08503198623657,chair,chair,0,0093_stg_s10_0_chair_00_chair10-dog1.png
subject-10,1,94,1.49769902229309,oven,bicycle,0,0094_stg_s10_0_bicycle_00_bicycle4-oven3.png
subject-10,1,95,1.10591793060303,knife,bottle,0,0095_stg_s10_0_bottle_00_bottle3-bottle3.png
subject-10,1,96,1.22638201713562,elephant,car,0,0096_stg_s10_0_car_00_car6-bear1.png
subject-10,1,97,1.2318320274353,knife,elephant,0,0097_stg_s10_0_elephant_00_elephant6-oven1.png
subject-10,1,98,NaN,na,dog,0,0098_stg_s10_0_dog_00_dog9-bicycle3.png
subject-10,1,99,1.3032591342926,elephant,oven,0,0099_stg_s10_0_oven_00_oven6-bird1.png
subject-10,1,100,0.734776973724365,bear,airplane,0,0100_stg_s10_0_airplane_00_airplane4-keyboard3.png
subject-10,1,101,1.36785507202148,oven,elephant,0,0101_stg_s10_0_elephant_00_elephant7-cat1.png
subject-10,1,102,0.797780990600586,elephant,elephant,0,0102_stg_s10_0_elephant_00_elephant5-elephant1.png
subject-10,1,103,1.13337302207947,bottle,chair,0,0103_stg_s10_0_chair_00_chair4-bear2.png
subject-10,1,104,1.50020885467529,car,airplane,0,0104_stg_s10_0_airplane_00_airplane4-boat3.png
subject-10,1,105,1.16321897506714,knife,dog,0,0105_stg_s10_0_dog_00_dog4-keyboard2.png
subject-10,1,106,0.877637147903442,elephant,chair,0,0106_stg_s10_0_chair_00_chair7-elephant1.png
subject-10,1,107,1.25669193267822,bear,bottle,0,0107_stg_s10_0_bottle_00_bottle10-dog1.png
subject-10,1,108,1.40882015228271,dog,car,0,0108_stg_s10_0_car_00_car6-knife1.png
subject-10,1,109,1.15282106399536,airplane,clock,0,0109_stg_s10_0_clock_00_clock7-keyboard2.png
subject-10,1,110,1.16663312911987,boat,truck,0,0110_stg_s10_0_truck_00_truck4-boat3.png
subject-10,1,111,0.68569803237915,elephant,cat,0,0111_stg_s10_0_cat_00_cat10-elephant3.png
subject-10,1,112,0.884417057037354,bear,bear,0,0112_stg_s10_0_bear_00_bear9-keyboard3.png
subject-10,1,113,0.811620950698853,clock,clock,0,0113_stg_s10_0_clock_00_clock8-knife1.png
subject-10,1,114,1.33882188796997,chair,cat,0,0114_stg_s10_0_cat_00_cat2-cat1.png
subject-10,1,115,1.29102897644043,cat,boat,0,0115_stg_s10_0_boat_00_boat10-cat1.png
subject-10,1,116,1.50014996528625,airplane,car,0,0116_stg_s10_0_car_00_car4-cat3.png
subject-10,1,117,0.965646028518677,clock,oven,0,0117_stg_s10_0_oven_00_oven3-boat3.png
subject-10,1,118,0.716816902160645,clock,oven,0,0118_stg_s10_0_oven_00_oven2-bottle1.png
subject-10,1,119,1.17455196380615,car,clock,0,0119_stg_s10_0_clock_00_clock10-airplane1.png
subject-10,1,120,1.46457195281982,oven,keyboard,0,0120_stg_s10_0_keyboard_00_keyboard9-bear2.png
subject-10,1,121,1.079421043396,bottle,elephant,0,0121_stg_s10_0_elephant_00_elephant8-boat2.png
subject-10,1,122,0.852637052536011,bicycle,chair,0,0122_stg_s10_0_chair_00_chair9-bird3.png
subject-10,1,123,0.938468933105469,airplane,truck,0,0123_stg_s10_0_truck_00_truck6-bicycle1.png
subject-10,1,124,1.20713090896606,keyboard,dog,0,0124_stg_s10_0_dog_00_dog2-bottle2.png
subject-10,1,125,1.34591317176819,airplane,car,0,0125_stg_s10_0_car_00_car3-airplane3.png
subject-10,1,126,1.36607098579407,chair,clock,0,0126_stg_s10_0_clock_00_clock1-car1.png
subject-10,1,127,0.833786964416504,elephant,elephant,0,0127_stg_s10_0_elephant_00_elephant7-bear3.png
subject-10,1,128,1.14577889442444,bear,clock,0,0128_stg_s10_0_clock_00_clock1-dog2.png
subject-10,1,129,1.22786808013916,oven,keyboard,0,0129_stg_s10_0_keyboard_00_keyboard3-bicycle2.png
subject-10,1,130,1.10392498970032,elephant,elephant,0,0130_stg_s10_0_elephant_00_elephant2-bird1.png
subject-10,1,131,1.10173892974854,dog,keyboard,0,0131_stg_s10_0_keyboard_00_keyboard4-keyboard2.png
subject-10,1,132,1.27010202407837,dog,truck,0,0132_stg_s10_0_truck_00_truck3-bear3.png
subject-10,1,133,1.00571393966675,car,chair,0,0133_stg_s10_0_chair_00_chair1-chair1.png
subject-10,1,134,1.17920684814453,boat,cat,0,0134_stg_s10_0_cat_00_cat4-oven1.png
subject-10,1,135,1.01507496833801,oven,truck,0,0135_stg_s10_0_truck_00_truck7-oven2.png
subject-10,1,136,0.904742956161499,airplane,dog,0,0136_stg_s10_0_dog_00_dog5-boat3.png
subject-10,1,137,0.841835975646973,bicycle,clock,0,0137_stg_s10_0_clock_00_clock3-keyboard3.png
subject-10,1,138,1.35278987884521,chair,chair,0,0138_stg_s10_0_chair_00_chair9-chair3.png
subject-10,1,139,1.21533298492432,elephant,elephant,0,0139_stg_s10_0_elephant_00_elephant1-bear2.png
subject-10,1,140,0.913799047470093,bottle,bottle,0,0140_stg_s10_0_bottle_00_bottle7-boat3.png
subject-10,1,141,1.37949204444885,boat,chair,0,0141_stg_s10_0_chair_00_chair10-bicycle1.png
subject-10,1,142,0.939537048339844,bicycle,truck,0,0142_stg_s10_0_truck_00_truck6-bear2.png
subject-10,1,143,1.19789099693298,car,bird,0,0143_stg_s10_0_bird_00_bird8-clock1.png
subject-10,1,144,1.4821310043335,car,truck,0,0144_stg_s10_0_truck_00_truck10-car3.png
subject-10,1,145,1.17754483222961,elephant,cat,0,0145_stg_s10_0_cat_00_cat8-bird2.png
subject-10,1,146,1.0529580116272,knife,airplane,0,0146_stg_s10_0_airplane_00_airplane10-oven2.png
subject-10,1,147,1.04329395294189,dog,knife,0,0147_stg_s10_0_knife_00_knife5-dog1.png
subject-10,1,148,0.901109933853149,airplane,clock,0,0148_stg_s10_0_clock_00_clock1-bear1.png
subject-10,1,149,1.02256488800049,bottle,airplane,0,0149_stg_s10_0_airplane_00_airplane5-dog3.png
subject-10,1,150,1.13420915603638,chair,keyboard,0,0150_stg_s10_0_keyboard_00_keyboard5-bottle1.png
subject-10,1,151,1.1245539188385,boat,bird,0,0151_stg_s10_0_bird_00_bird9-bear3.png
subject-10,1,152,1.401202917099,dog,bear,0,0152_stg_s10_0_bear_00_bear8-dog1.png
subject-10,1,153,1.11286306381226,elephant,oven,0,0153_stg_s10_0_oven_00_oven4-elephant3.png
subject-10,1,154,1.27807283401489,clock,airplane,0,0154_stg_s10_0_airplane_00_airplane2-bird3.png
subject-10,1,155,0.692014932632446,oven,bottle,0,0155_stg_s10_0_bottle_00_bottle7-keyboard2.png
subject-10,1,156,1.02773404121399,clock,bicycle,0,0156_stg_s10_0_bicycle_00_bicycle8-clock3.png
subject-10,1,157,0.734253883361816,elephant,airplane,0,0157_stg_s10_0_airplane_00_airplane4-elephant1.png
subject-10,1,158,1.40809893608093,bird,boat,0,0158_stg_s10_0_boat_00_boat6-truck3.png
subject-10,1,159,1.31945705413818,boat,bicycle,0,0159_stg_s10_0_bicycle_00_bicycle4-car2.png
subject-10,1,160,1.35845398902893,keyboard,bottle,0,0160_stg_s10_0_bottle_00_bottle2-elephant1.png
subject-10,1,161,1.44818878173828,bottle,bird,0,0161_stg_s10_0_bird_00_bird7-oven3.png
subject-10,1,162,0.916625022888184,elephant,dog,0,0162_stg_s10_0_dog_00_dog4-elephant2.png
subject-10,1,163,1.35273790359497,boat,dog,0,0163_stg_s10_0_dog_00_dog9-bottle1.png
subject-10,1,164,1.04169511795044,car,elephant,0,0164_stg_s10_0_elephant_00_elephant8-knife2.png
subject-10,1,165,1.09143304824829,keyboard,bottle,0,0165_stg_s10_0_bottle_00_bottle3-bear2.png
subject-10,1,166,1.03562498092651,bottle,boat,0,0166_stg_s10_0_boat_00_boat4-bottle2.png
subject-10,1,167,1.01723384857178,bird,dog,0,0167_stg_s10_0_dog_00_dog1-car2.png
subject-10,1,168,1.14009594917297,chair,oven,0,0168_stg_s10_0_oven_00_oven2-bicycle1.png
subject-10,1,169,0.858991861343384,bottle,knife,0,0169_stg_s10_0_knife_00_knife4-boat1.png
subject-10,1,170,1.14888596534729,boat,oven,0,0170_stg_s10_0_oven_00_oven8-cat3.png
subject-10,1,171,1.30698204040527,elephant,bear,0,0171_stg_s10_0_bear_00_bear7-bicycle2.png
subject-10,1,172,0.920558929443359,car,car,0,0172_stg_s10_0_car_00_car5-truck3.png
subject-10,1,173,1.01858520507812,oven,oven,0,0173_stg_s10_0_oven_00_oven3-airplane1.png
subject-10,1,174,1.33875703811646,oven,oven,0,0174_stg_s10_0_oven_00_oven2-bear3.png
subject-10,1,175,1.50003600120544,dog,chair,0,0175_stg_s10_0_chair_00_chair7-cat1.png
subject-10,1,176,1.35010480880737,dog,dog,0,0176_stg_s10_0_dog_00_dog10-car3.png
subject-10,1,177,1.38406896591187,boat,cat,0,0177_stg_s10_0_cat_00_cat9-bird3.png
subject-10,1,178,0.629619121551514,bear,keyboard,0,0178_stg_s10_0_keyboard_00_keyboard6-dog2.png
subject-10,1,179,1.2089900970459,keyboard,car,0,0179_stg_s10_0_car_00_car8-bicycle2.png
subject-10,1,180,1.11464214324951,chair,bottle,0,0180_stg_s10_0_bottle_00_bottle8-knife1.png
subject-10,1,181,1.28913712501526,oven,clock,0,0181_stg_s10_0_clock_00_clock4-knife1.png
subject-10,1,182,1.03333806991577,boat,truck,0,0182_stg_s10_0_truck_00_truck8-keyboard2.png
subject-10,1,183,1.42843317985535,bird,cat,0,0183_stg_s10_0_cat_00_cat8-bicycle3.png
subject-10,1,184,1.07490992546082,dog,bird,0,0184_stg_s10_0_bird_00_bird9-dog2.png
subject-10,1,185,1.20281910896301,chair,chair,0,0185_stg_s10_0_chair_00_chair4-chair3.png
subject-10,1,186,1.20705389976501,oven,boat,0,0186_stg_s10_0_boat_00_boat10-bear3.png
subject-10,1,187,1.19650483131409,boat,bicycle,0,0187_stg_s10_0_bicycle_00_bicycle7-truck3.png
subject-10,1,188,1.06457114219666,dog,bear,0,0188_stg_s10_0_bear_00_bear3-chair2.png
subject-10,1,189,0.983422040939331,elephant,bottle,0,0189_stg_s10_0_bottle_00_bottle8-elephant3.png
subject-10,1,190,1.09839916229248,truck,bird,0,0190_stg_s10_0_bird_00_bird1-oven1.png
subject-10,1,191,1.3020920753479,keyboard,clock,0,0191_stg_s10_0_clock_00_clock6-chair3.png
subject-10,1,192,0.938147068023682,bottle,keyboard,0,0192_stg_s10_0_keyboard_00_keyboard4-bottle2.png
subject-10,1,193,0.889695167541504,oven,oven,0,0193_stg_s10_0_oven_00_oven6-airplane3.png
subject-10,1,194,1.21735787391663,keyboard,keyboard,0,0194_stg_s10_0_keyboard_00_keyboard5-airplane3.png
subject-10,1,195,1.04597783088684,boat,airplane,0,0195_stg_s10_0_airplane_00_airplane4-knife1.png
subject-10,1,196,NaN,na,chair,0,0196_stg_s10_0_chair_00_chair7-bird1.png
subject-10,1,197,1.22483897209167,bird,cat,0,0197_stg_s10_0_cat_00_cat6-keyboard3.png
subject-10,1,198,1.50030708312988,boat,boat,0,0198_stg_s10_0_boat_00_boat2-oven3.png
subject-10,1,199,1.50040984153748,bottle,cat,0,0199_stg_s10_0_cat_00_cat3-bicycle1.png
subject-10,1,200,1.50046181678772,car,dog,0,0200_stg_s10_0_dog_00_dog1-chair1.png
subject-10,1,201,1.15641689300537,dog,elephant,0,0201_stg_s10_0_elephant_00_elephant1-dog2.png
subject-10,1,202,0.863323926925659,elephant,dog,0,0202_stg_s10_0_dog_00_dog3-elephant2.png
subject-10,1,203,0.883059978485107,airplane,bicycle,0,0203_stg_s10_0_bicycle_00_bicycle1-clock3.png
subject-10,1,204,0.951539993286133,cat,bird,0,0204_stg_s10_0_bird_00_bird5-truck2.png
subject-10,1,205,1.19601106643677,bottle,airplane,0,0205_stg_s10_0_airplane_00_airplane7-clock3.png
subject-10,1,206,0.809180021286011,keyboard,bicycle,0,0206_stg_s10_0_bicycle_00_bicycle1-knife3.png
subject-10,1,207,0.736818075180054,boat,clock,0,0207_stg_s10_0_clock_00_clock5-keyboard1.png
subject-10,1,208,0.889777898788452,bicycle,truck,0,0208_stg_s10_0_truck_00_truck9-elephant1.png
subject-10,1,209,0.917678117752075,car,bird,0,0209_stg_s10_0_bird_00_bird1-knife3.png
subject-10,1,210,1.35906004905701,truck,bear,0,0210_stg_s10_0_bear_00_bear10-oven1.png
subject-10,1,211,1.0894501209259,keyboard,keyboard,0,0211_stg_s10_0_keyboard_00_keyboard9-bicycle2.png
subject-10,1,212,0.939130783081055,oven,airplane,0,0212_stg_s10_0_airplane_00_airplane8-truck3.png
subject-10,1,213,1.26945400238037,elephant,car,0,0213_stg_s10_0_car_00_car3-elephant3.png
subject-10,1,214,0.943404912948608,boat,truck,0,0214_stg_s10_0_truck_00_truck9-airplane2.png
subject-10,1,215,1.04148697853088,car,dog,0,0215_stg_s10_0_dog_00_dog3-truck2.png
subject-10,1,216,1.40244698524475,cat,bottle,0,0216_stg_s10_0_bottle_00_bottle4-oven2.png
subject-10,1,217,1.439040184021,boat,bear,0,0217_stg_s10_0_bear_00_bear6-boat3.png
subject-10,1,218,0.96760106086731,elephant,cat,0,0218_stg_s10_0_cat_00_cat7-elephant1.png
subject-10,1,219,1.23467111587524,boat,car,0,0219_stg_s10_0_car_00_car2-knife3.png
subject-10,1,220,0.639907121658325,bottle,keyboard,0,0220_stg_s10_0_keyboard_00_keyboard4-bird1.png
subject-10,1,221,1.27389597892761,boat,cat,0,0221_stg_s10_0_cat_00_cat7-airplane2.png
subject-10,1,222,1.02625799179077,bear,dog,0,0222_stg_s10_0_dog_00_dog3-dog1.png
subject-10,1,223,1.17838501930237,bottle,airplane,0,0223_stg_s10_0_airplane_00_airplane10-knife3.png
subject-10,1,224,1.02160096168518,oven,truck,0,0224_stg_s10_0_truck_00_truck2-oven3.png
subject-10,1,225,1.23342108726501,bicycle,dog,0,0225_stg_s10_0_dog_00_dog7-knife3.png
subject-10,1,226,1.41605806350708,dog,knife,0,0226_stg_s10_0_knife_00_knife2-dog1.png
subject-10,1,227,1.46820592880249,car,car,0,0227_stg_s10_0_car_00_car5-airplane3.png
subject-10,1,228,1.31940197944641,chair,bicycle,0,0228_stg_s10_0_bicycle_00_bicycle2-dog1.png
subject-10,1,229,NaN,na,dog,0,0229_stg_s10_0_dog_00_dog1-cat3.png
subject-10,1,230,1.16665816307068,bird,bird,0,0230_stg_s10_0_bird_00_bird2-bird2.png
subject-10,1,231,1.39488506317139,chair,bear,0,0231_stg_s10_0_bear_00_bear4-clock3.png
subject-10,1,232,1.26262807846069,oven,elephant,0,0232_stg_s10_0_elephant_00_elephant3-knife1.png
subject-10,1,233,0.74457311630249,oven,car,0,0233_stg_s10_0_car_00_car10-keyboard2.png
subject-10,1,234,1.1886899471283,airplane,bear,0,0234_stg_s10_0_bear_00_bear9-boat2.png
subject-10,1,235,1.29420399665833,cat,bear,0,0235_stg_s10_0_bear_00_bear8-knife3.png
subject-10,1,236,1.20643591880798,boat,car,0,0236_stg_s10_0_car_00_car5-cat1.png
subject-10,1,237,1.1208770275116,knife,knife,0,0237_stg_s10_0_knife_00_knife10-keyboard3.png
subject-10,1,238,1.03984999656677,boat,boat,0,0238_stg_s10_0_boat_00_boat2-airplane1.png
subject-10,1,239,0.821090936660767,cat,bird,0,0239_stg_s10_0_bird_00_bird2-knife1.png
subject-10,1,240,1.02739214897156,bottle,cat,0,0240_stg_s10_0_cat_00_cat6-chair3.png
subject-10,1,241,NaN,na,dog,0,0241_stg_s10_0_dog_00_dog7-oven2.png
subject-10,1,242,1.18889188766479,elephant,oven,0,0242_stg_s10_0_oven_00_oven6-elephant2.png
subject-10,1,243,NaN,na,elephant,0,0243_stg_s10_0_elephant_00_elephant6-bicycle1.png
subject-10,1,244,0.854926109313965,bird,boat,0,0244_stg_s10_0_boat_00_boat7-chair1.png
subject-10,1,245,0.982294082641602,car,car,0,0245_stg_s10_0_car_00_car4-clock1.png
subject-10,1,246,0.680010080337524,cat,elephant,0,0246_stg_s10_0_elephant_00_elephant1-chair1.png
subject-10,1,247,1.08391284942627,bird,bird,0,0247_stg_s10_0_bird_00_bird10-clock1.png
subject-10,1,248,0.827837944030762,boat,keyboard,0,0248_stg_s10_0_keyboard_00_keyboard7-truck2.png
subject-10,1,249,1.16374611854553,airplane,elephant,0,0249_stg_s10_0_elephant_00_elephant2-clock1.png
subject-10,1,250,1.09105706214905,airplane,bird,0,0250_stg_s10_0_bird_00_bird7-knife2.png
subject-10,1,251,0.765167951583862,oven,keyboard,0,0251_stg_s10_0_keyboard_00_keyboard9-keyboard2.png
subject-10,1,252,1.46118998527527,cat,car,0,0252_stg_s10_0_car_00_car2-car3.png
subject-10,1,253,0.698058843612671,bear,bear,0,0253_stg_s10_0_bear_00_bear6-cat3.png
subject-10,1,254,1.06481719017029,car,chair,0,0254_stg_s10_0_chair_00_chair7-boat3.png
subject-10,1,255,1.22287178039551,bottle,bear,0,0255_stg_s10_0_bear_00_bear7-truck1.png
subject-10,1,256,1.23621320724487,dog,cat,0,0256_stg_s10_0_cat_00_cat4-clock2.png
subject-10,1,257,0.773677825927734,oven,oven,0,0257_stg_s10_0_oven_00_oven10-boat2.png
subject-10,1,258,1.05523800849915,boat,airplane,0,0258_stg_s10_0_airplane_00_airplane9-clock1.png
subject-10,1,259,1.1911461353302,car,oven,0,0259_stg_s10_0_oven_00_oven10-cat2.png
subject-10,1,260,0.748447179794312,bear,chair,0,0260_stg_s10_0_chair_00_chair6-dog1.png
subject-10,1,261,0.73790717124939,boat,bird,0,0261_stg_s10_0_bird_00_bird3-boat3.png
subject-10,1,262,0.879504919052124,dog,dog,0,0262_stg_s10_0_dog_00_dog1-bear1.png
subject-10,1,263,1.13997411727905,keyboard,keyboard,0,0263_stg_s10_0_keyboard_00_keyboard8-keyboard2.png
subject-10,1,264,0.759129047393799,boat,bottle,0,0264_stg_s10_0_bottle_00_bottle6-boat3.png
subject-10,1,265,1.0092658996582,oven,bird,0,0265_stg_s10_0_bird_00_bird3-truck3.png
subject-10,1,266,0.731283903121948,boat,keyboard,0,0266_stg_s10_0_keyboard_00_keyboard4-clock2.png
subject-10,1,267,1.35928106307983,bottle,cat,0,0267_stg_s10_0_cat_00_cat5-chair3.png
subject-10,1,268,1.500244140625,knife,boat,0,0268_stg_s10_0_boat_00_boat10-truck1.png
subject-10,1,269,1.09848403930664,knife,bicycle,0,0269_stg_s10_0_bicycle_00_bicycle1-bottle3.png
subject-10,1,270,1.02582311630249,boat,boat,0,0270_stg_s10_0_boat_00_boat7-oven3.png
subject-10,1,271,1.01564502716064,car,bottle,0,0271_stg_s10_0_bottle_00_bottle10-boat3.png
subject-10,1,272,0.76034688949585,bottle,car,0,0272_stg_s10_0_car_00_car6-chair3.png
subject-10,1,273,0.833593845367432,clock,clock,0,0273_stg_s10_0_clock_00_clock1-clock2.png
subject-10,1,274,1.01598310470581,bottle,airplane,0,0274_stg_s10_0_airplane_00_airplane4-cat3.png
subject-10,1,275,1.50021886825562,dog,dog,0,0275_stg_s10_0_dog_00_dog6-bird1.png
subject-10,1,276,0.679821968078613,boat,car,0,0276_stg_s10_0_car_00_car1-chair3.png
subject-10,1,277,0.808129072189331,clock,bicycle,0,0277_stg_s10_0_bicycle_00_bicycle6-cat1.png
subject-10,1,278,0.944242000579834,oven,keyboard,0,0278_stg_s10_0_keyboard_00_keyboard5-oven2.png
subject-10,1,279,1.22403502464294,keyboard,oven,0,0279_stg_s10_0_oven_00_oven7-clock2.png
subject-10,1,280,1.1673309803009,boat,keyboard,0,0280_stg_s10_0_keyboard_00_keyboard2-bottle1.png
subject-10,1,281,1.44711303710938,chair,cat,0,0281_stg_s10_0_cat_00_cat1-bird1.png
subject-10,1,282,1.32066512107849,boat,truck,0,0282_stg_s10_0_truck_00_truck1-clock3.png
subject-10,1,283,1.18094301223755,clock,cat,0,0283_stg_s10_0_cat_00_cat10-clock1.png
subject-10,1,284,1.37648487091064,knife,airplane,0,0284_stg_s10_0_airplane_00_airplane5-oven3.png
subject-10,1,285,1.50034284591675,bicycle,clock,0,0285_stg_s10_0_clock_00_clock8-bear2.png
subject-10,1,286,NaN,na,bird,0,0286_stg_s10_0_bird_00_bird6-boat2.png
subject-10,1,287,0.791204929351807,boat,truck,0,0287_stg_s10_0_truck_00_truck3-cat1.png
subject-10,1,288,1.26153492927551,oven,keyboard,0,0288_stg_s10_0_keyboard_00_keyboard8-oven1.png
subject-10,1,289,1.15962910652161,clock,oven,0,0289_stg_s10_0_oven_00_oven7-elephant1.png
subject-10,1,290,1.23436808586121,chair,cat,0,0290_stg_s10_0_cat_00_cat2-boat2.png
subject-10,1,291,0.877743005752563,boat,clock,0,0291_stg_s10_0_clock_00_clock4-oven1.png
subject-10,1,292,0.9842529296875,clock,bicycle,0,0292_stg_s10_0_bicycle_00_bicycle5-oven3.png
subject-10,1,293,1.05817818641663,bicycle,truck,0,0293_stg_s10_0_truck_00_truck1-dog1.png
subject-10,1,294,1.17005014419556,truck,clock,0,0294_stg_s10_0_clock_00_clock10-truck2.png
subject-10,1,295,1.2059850692749,keyboard,car,0,0295_stg_s10_0_car_00_car5-keyboard3.png
subject-10,1,296,1.41771912574768,boat,bicycle,0,0296_stg_s10_0_bicycle_00_bicycle4-knife3.png
subject-10,1,297,1.16219401359558,chair,elephant,0,0297_stg_s10_0_elephant_00_elephant3-truck1.png
subject-10,1,298,0.981899976730347,bottle,truck,0,0298_stg_s10_0_truck_00_truck1-bird1.png
subject-10,1,299,1.0341329574585,clock,knife,0,0299_stg_s10_0_knife_00_knife5-truck3.png
subject-10,1,300,0.9214768409729,cat,bear,0,0300_stg_s10_0_bear_00_bear9-bottle2.png
subject-10,1,301,1.50015997886658,boat,car,0,0301_stg_s10_0_car_00_car8-boat3.png
subject-10,1,302,1.15497803688049,knife,knife,0,0302_stg_s10_0_knife_00_knife6-bird1.png
subject-10,1,303,0.936634063720703,boat,chair,0,0303_stg_s10_0_chair_00_chair4-cat2.png
subject-10,1,304,1.50020003318787,bottle,clock,0,0304_stg_s10_0_clock_00_clock3-bird1.png
subject-10,1,305,0.943876028060913,elephant,elephant,0,0305_stg_s10_0_elephant_00_elephant2-bear3.png
subject-10,1,306,0.842484951019287,boat,truck,0,0306_stg_s10_0_truck_00_truck10-truck3.png
subject-10,1,307,NaN,na,bird,0,0307_stg_s10_0_bird_00_bird10-bird2.png
subject-10,1,308,0.859795093536377,bicycle,chair,0,0308_stg_s10_0_chair_00_chair5-clock2.png
subject-10,1,309,1.28894591331482,keyboard,keyboard,0,0309_stg_s10_0_keyboard_00_keyboard1-bear2.png
subject-10,1,310,0.924040079116821,elephant,bicycle,0,0310_stg_s10_0_bicycle_00_bicycle1-elephant2.png
subject-10,1,311,1.11535811424255,dog,bird,0,0311_stg_s10_0_bird_00_bird6-elephant2.png
subject-10,1,312,1.18140506744385,bird,bottle,0,0312_stg_s10_0_bottle_00_bottle4-dog2.png
subject-10,1,313,1.26275300979614,car,cat,0,0313_stg_s10_0_cat_00_cat5-bicycle3.png
subject-10,1,314,1.50018501281738,boat,cat,0,0314_stg_s10_0_cat_00_cat6-oven1.png
subject-10,1,315,1.23511695861816,clock,knife,0,0315_stg_s10_0_knife_00_knife9-boat1.png
subject-10,1,316,0.978715896606445,bicycle,bottle,0,0316_stg_s10_0_bottle_00_bottle6-airplane1.png
subject-10,1,317,1.35248017311096,boat,car,0,0317_stg_s10_0_car_00_car1-clock2.png
subject-10,1,318,0.787803173065186,oven,clock,0,0318_stg_s10_0_clock_00_clock6-truck3.png
subject-10,1,319,1.23035407066345,car,dog,0,0319_stg_s10_0_dog_00_dog8-boat3.png
subject-10,1,320,1.5003809928894,bird,bear,0,0320_stg_s10_0_bear_00_bear1-bicycle3.png
subject-10,1,321,1.50007510185242,oven,bird,0,0321_stg_s10_0_bird_00_bird9-keyboard1.png
subject-10,1,322,1.03077816963196,cat,bird,0,0322_stg_s10_0_bird_00_bird5-keyboard2.png
subject-10,1,323,1.17476606369019,elephant,car,0,0323_stg_s10_0_car_00_car7-keyboard3.png
subject-10,1,324,1.16426181793213,car,clock,0,0324_stg_s10_0_clock_00_clock2-clock3.png
subject-10,1,325,0.962475061416626,boat,bicycle,0,0325_stg_s10_0_bicycle_00_bicycle7-clock3.png
subject-10,1,326,1.28803300857544,boat,truck,0,0326_stg_s10_0_truck_00_truck5-dog3.png
subject-10,1,327,0.910378932952881,car,clock,0,0327_stg_s10_0_clock_00_clock3-car2.png
subject-10,1,328,1.05970191955566,truck,car,0,0328_stg_s10_0_car_00_car10-chair1.png
subject-10,1,329,0.856928110122681,oven,truck,0,0329_stg_s10_0_truck_00_truck6-clock2.png
subject-10,1,330,1.10720705986023,bottle,truck,0,0330_stg_s10_0_truck_00_truck6-bottle3.png
subject-10,1,331,1.00871801376343,cat,bird,0,0331_stg_s10_0_bird_00_bird5-oven3.png
subject-10,1,332,1.5001118183136,boat,bear,0,0332_stg_s10_0_bear_00_bear10-knife2.png
subject-10,1,333,1.24054598808289,boat,chair,0,0333_stg_s10_0_chair_00_chair3-bottle3.png
subject-10,1,334,0.892577886581421,clock,boat,0,0334_stg_s10_0_boat_00_boat9-knife2.png
subject-10,1,335,0.806550025939941,clock,clock,0,0335_stg_s10_0_clock_00_clock6-oven1.png
subject-10,1,336,0.942943096160889,cat,bird,0,0336_stg_s10_0_bird_00_bird8-keyboard2.png
subject-10,1,337,1.31690311431885,bottle,elephant,0,0337_stg_s10_0_elephant_00_elephant8-bicycle3.png
subject-10,1,338,1.15802502632141,car,truck,0,0338_stg_s10_0_truck_00_truck5-knife3.png
subject-10,1,339,1.50009608268738,oven,oven,0,0339_stg_s10_0_oven_00_oven7-dog2.png
subject-10,1,340,NaN,na,airplane,0,0340_stg_s10_0_airplane_00_airplane5-bottle3.png
subject-10,1,341,1.26642894744873,dog,bicycle,0,0341_stg_s10_0_bicycle_00_bicycle6-dog2.png
subject-10,1,342,1.09429502487183,knife,knife,0,0342_stg_s10_0_knife_00_knife1-oven1.png
subject-10,1,343,1.36072897911072,oven,oven,0,0343_stg_s10_0_oven_00_oven6-bicycle1.png
subject-10,1,344,0.991446971893311,clock,chair,0,0344_stg_s10_0_chair_00_chair7-knife2.png
subject-10,1,345,1.1469898223877,keyboard,knife,0,0345_stg_s10_0_knife_00_knife5-bicycle2.png
subject-10,1,346,0.836609125137329,chair,boat,0,0346_stg_s10_0_boat_00_boat1-keyboard3.png
subject-10,1,347,1.17294406890869,bottle,clock,0,0347_stg_s10_0_clock_00_clock9-bird2.png
subject-10,1,348,1.00707292556763,car,truck,0,0348_stg_s10_0_truck_00_truck1-bear1.png
subject-10,1,349,0.920527935028076,elephant,elephant,0,0349_stg_s10_0_elephant_00_elephant4-clock3.png
subject-10,1,350,1.12441611289978,bottle,bottle,0,0350_stg_s10_0_bottle_00_bottle7-clock1.png
subject-10,1,351,0.668548107147217,boat,chair,0,0351_stg_s10_0_chair_00_chair10-airplane2.png
subject-10,1,352,1.49999690055847,truck,cat,0,0352_stg_s10_0_cat_00_cat10-airplane3.png
subject-10,1,353,1.22459387779236,boat,bird,0,0353_stg_s10_0_bird_00_bird6-bottle3.png
subject-10,1,354,0.836199998855591,elephant,knife,0,0354_stg_s10_0_knife_00_knife2-elephant2.png
subject-10,1,355,1.05726885795593,boat,bottle,0,0355_stg_s10_0_bottle_00_bottle3-chair3.png
subject-10,1,356,1.45076012611389,oven,clock,0,0356_stg_s10_0_clock_00_clock7-dog2.png
subject-10,1,357,1.11021494865417,clock,clock,0,0357_stg_s10_0_clock_00_clock10-clock3.png
subject-10,1,358,1.21415400505066,car,bear,0,0358_stg_s10_0_bear_00_bear8-boat2.png
subject-10,1,359,1.07440185546875,bicycle,car,0,0359_stg_s10_0_car_00_car10-car1.png
subject-10,1,360,1.17042803764343,clock,car,0,0360_stg_s10_0_car_00_car7-boat3.png
subject-10,1,361,1.43669295310974,boat,clock,0,0361_stg_s10_0_clock_00_clock9-airplane1.png
subject-10,1,362,1.18807911872864,elephant,clock,0,0362_stg_s10_0_clock_00_clock1-elephant2.png
subject-10,1,363,1.50036096572876,dog,elephant,0,0363_stg_s10_0_elephant_00_elephant10-keyboard1.png
subject-10,1,364,NaN,na,boat,0,0364_stg_s10_0_boat_00_boat1-truck3.png
subject-10,1,365,1.11043787002563,oven,car,0,0365_stg_s10_0_car_00_car1-oven3.png
subject-10,1,366,1.1963632106781,dog,truck,0,0366_stg_s10_0_truck_00_truck4-bear1.png
subject-10,1,367,0.786795854568481,boat,truck,0,0367_stg_s10_0_truck_00_truck6-truck2.png
subject-10,1,368,NaN,na,truck,0,0368_stg_s10_0_truck_00_truck5-keyboard1.png
subject-10,1,369,1.11713218688965,car,car,0,0369_stg_s10_0_car_00_car9-knife1.png
subject-10,1,370,1.11311316490173,elephant,bicycle,0,0370_stg_s10_0_bicycle_00_bicycle3-elephant2.png
subject-10,1,371,0.94892406463623,oven,truck,0,0371_stg_s10_0_truck_00_truck3-clock3.png
subject-10,1,372,1.13105416297913,truck,truck,0,0372_stg_s10_0_truck_00_truck4-bottle2.png
subject-10,1,373,0.995855093002319,dog,clock,0,0373_stg_s10_0_clock_00_clock3-bear3.png
subject-10,1,374,1.37839794158936,elephant,elephant,0,0374_stg_s10_0_elephant_00_elephant8-bird2.png
subject-10,1,375,1.27286601066589,bird,dog,0,0375_stg_s10_0_dog_00_dog1-dog2.png
subject-10,1,376,1.07881498336792,oven,chair,0,0376_stg_s10_0_chair_00_chair8-airplane1.png
subject-10,1,377,1.26069307327271,truck,elephant,0,0377_stg_s10_0_elephant_00_elephant8-cat1.png
subject-10,1,378,1.26463198661804,clock,bicycle,0,0378_stg_s10_0_bicycle_00_bicycle7-bear2.png
subject-10,1,379,1.24176287651062,knife,knife,0,0379_stg_s10_0_knife_00_knife9-bicycle1.png
subject-10,1,380,1.21543097496033,car,keyboard,0,0380_stg_s10_0_keyboard_00_keyboard9-truck3.png
subject-10,1,381,1.1281430721283,boat,bird,0,0381_stg_s10_0_bird_00_bird1-keyboard3.png
subject-10,1,382,1.03431010246277,clock,cat,0,0382_stg_s10_0_cat_00_cat4-keyboard2.png
subject-10,1,383,1.23797297477722,car,keyboard,0,0383_stg_s10_0_keyboard_00_keyboard10-truck1.png
subject-10,1,384,0.892283916473389,elephant,knife,0,0384_stg_s10_0_knife_00_knife9-elephant2.png
subject-10,1,385,1.17404699325562,elephant,chair,0,0385_stg_s10_0_chair_00_chair9-elephant1.png
subject-10,1,386,1.46962404251099,clock,car,0,0386_stg_s10_0_car_00_car9-clock2.png
subject-10,1,387,1.33556604385376,truck,knife,0,0387_stg_s10_0_knife_00_knife2-bottle2.png
subject-10,1,388,1.0335431098938,car,truck,0,0388_stg_s10_0_truck_00_truck3-bicycle1.png
subject-10,1,389,1.5001220703125,clock,boat,0,0389_stg_s10_0_boat_00_boat2-bottle2.png
subject-10,1,390,1.42759990692139,boat,bear,0,0390_stg_s10_0_bear_00_bear2-keyboard2.png
subject-10,1,391,1.10906600952148,car,bottle,0,0391_stg_s10_0_bottle_00_bottle9-truck1.png
subject-10,1,392,1.28802084922791,car,dog,0,0392_stg_s10_0_dog_00_dog6-clock1.png
subject-10,1,393,0.963430166244507,elephant,boat,0,0393_stg_s10_0_boat_00_boat6-elephant2.png
subject-10,1,394,1.14377498626709,boat,bird,0,0394_stg_s10_0_bird_00_bird3-knife3.png
subject-10,1,395,1.43257999420166,bottle,bottle,0,0395_stg_s10_0_bottle_00_bottle2-clock1.png
subject-10,1,396,1.13934588432312,car,airplane,0,0396_stg_s10_0_airplane_00_airplane8-bicycle3.png
subject-10,1,397,1.50024914741516,dog,bird,0,0397_stg_s10_0_bird_00_bird2-clock3.png
subject-10,1,398,0.848649978637695,clock,truck,0,0398_stg_s10_0_truck_00_truck3-keyboard3.png
subject-10,1,399,1.3450391292572,dog,keyboard,0,0399_stg_s10_0_keyboard_00_keyboard5-bear3.png
subject-10,1,400,1.24350190162659,car,dog,0,0400_stg_s10_0_dog_00_dog8-bottle2.png
subject-10,1,401,1.50013184547424,knife,oven,0,0401_stg_s10_0_oven_00_oven10-bicycle1.png
subject-10,1,402,1.07716488838196,boat,truck,0,0402_stg_s10_0_truck_00_truck10-bicycle1.png
subject-10,1,403,1.11352396011353,dog,bear,0,0403_stg_s10_0_bear_00_bear9-dog1.png
subject-10,1,404,1.24975395202637,oven,chair,0,0404_stg_s10_0_chair_00_chair9-boat2.png
subject-10,1,405,1.50049304962158,chair,bird,0,0405_stg_s10_0_bird_00_bird1-chair2.png
subject-10,1,406,1.25211310386658,dog,bicycle,0,0406_stg_s10_0_bicycle_00_bicycle9-bear1.png
subject-10,1,407,0.857767105102539,cat,bird,0,0407_stg_s10_0_bird_00_bird4-cat3.png
subject-10,1,408,1.15352892875671,bird,knife,0,0408_stg_s10_0_knife_00_knife2-bird1.png
subject-10,1,409,1.09694790840149,knife,bicycle,0,0409_stg_s10_0_bicycle_00_bicycle1-bird1.png
subject-10,1,410,1.07077097892761,boat,car,0,0410_stg_s10_0_car_00_car6-boat1.png
subject-10,1,411,NaN,na,bird,0,0411_stg_s10_0_bird_00_bird6-oven1.png
subject-10,1,412,0.813059091567993,bottle,dog,0,0412_stg_s10_0_dog_00_dog1-bird1.png
subject-10,1,413,0.895258903503418,boat,truck,0,0413_stg_s10_0_truck_00_truck2-clock1.png
subject-10,1,414,1.50040316581726,cat,airplane,0,0414_stg_s10_0_airplane_00_airplane4-bear3.png
subject-10,1,415,1.08662390708923,oven,truck,0,0415_stg_s10_0_truck_00_truck6-oven3.png
subject-10,1,416,0.80936598777771,elephant,car,0,0416_stg_s10_0_car_00_car10-elephant2.png
subject-10,1,417,1.18357396125793,car,boat,0,0417_stg_s10_0_boat_00_boat6-airplane2.png
subject-10,1,418,1.06591606140137,keyboard,truck,0,0418_stg_s10_0_truck_00_truck7-bird2.png
subject-10,1,419,1.43955612182617,car,bicycle,0,0419_stg_s10_0_bicycle_00_bicycle7-cat1.png
subject-10,1,420,0.921383142471313,car,car,0,0420_stg_s10_0_car_00_car7-car1.png
subject-10,1,421,1.38722109794617,dog,bird,0,0421_stg_s10_0_bird_00_bird3-bear3.png
subject-10,1,422,1.30677890777588,keyboard,keyboard,0,0422_stg_s10_0_keyboard_00_keyboard4-knife2.png
subject-10,1,423,1.25651693344116,oven,bird,0,0423_stg_s10_0_bird_00_bird1-truck1.png
subject-10,1,424,1.48464107513428,airplane,keyboard,0,0424_stg_s10_0_keyboard_00_keyboard5-bicycle1.png
subject-10,1,425,1.15057301521301,truck,oven,0,0425_stg_s10_0_oven_00_oven7-keyboard1.png
subject-10,1,426,NaN,na,bear,0,0426_stg_s10_0_bear_00_bear1-bird2.png
subject-10,1,427,0.884407997131348,dog,bear,0,0427_stg_s10_0_bear_00_bear4-cat3.png
subject-10,1,428,0.88050103187561,elephant,boat,0,0428_stg_s10_0_boat_00_boat6-dog1.png
subject-10,1,429,0.792433977127075,car,knife,0,0429_stg_s10_0_knife_00_knife1-chair1.png
subject-10,1,430,0.966694116592407,boat,keyboard,0,0430_stg_s10_0_keyboard_00_keyboard8-chair2.png
subject-10,1,431,0.810501098632812,car,oven,0,0431_stg_s10_0_oven_00_oven8-chair1.png
subject-10,1,432,1.26869893074036,bicycle,bicycle,0,0432_stg_s10_0_bicycle_00_bicycle8-bird2.png
subject-10,1,433,NaN,na,cat,0,0433_stg_s10_0_cat_00_cat3-bear2.png
subject-10,1,434,1.19439196586609,car,oven,0,0434_stg_s10_0_oven_00_oven9-keyboard1.png
subject-10,1,435,1.19042611122131,cat,cat,0,0435_stg_s10_0_cat_00_cat3-cat1.png
subject-10,1,436,1.50001811981201,car,airplane,0,0436_stg_s10_0_airplane_00_airplane2-bottle1.png
subject-10,1,437,0.970227956771851,oven,oven,0,0437_stg_s10_0_oven_00_oven9-clock2.png
subject-10,1,438,1.34949088096619,bottle,elephant,0,0438_stg_s10_0_elephant_00_elephant6-cat2.png
subject-10,1,439,1.26992988586426,knife,airplane,0,0439_stg_s10_0_airplane_00_airplane7-airplane3.png
subject-10,1,440,0.998514890670776,oven,keyboard,0,0440_stg_s10_0_keyboard_00_keyboard2-clock1.png
subject-10,1,441,1.04812693595886,keyboard,keyboard,0,0441_stg_s10_0_keyboard_00_keyboard9-airplane3.png
subject-10,1,442,1.33765888214111,boat,airplane,0,0442_stg_s10_0_airplane_00_airplane3-oven1.png
subject-10,1,443,1.17144894599915,car,knife,0,0443_stg_s10_0_knife_00_knife5-keyboard3.png
subject-10,1,444,1.49160885810852,knife,clock,0,0444_stg_s10_0_clock_00_clock3-bicycle2.png
subject-10,1,445,1.31946277618408,oven,cat,0,0445_stg_s10_0_cat_00_cat5-bear2.png
subject-10,1,446,1.35588383674622,dog,elephant,0,0446_stg_s10_0_elephant_00_elephant1-keyboard3.png
subject-10,1,447,1.27479410171509,elephant,car,0,0447_stg_s10_0_car_00_car4-elephant3.png
subject-10,1,448,0.881088018417358,cat,cat,0,0448_stg_s10_0_cat_00_cat5-dog3.png
subject-10,1,449,1.25254511833191,knife,knife,0,0449_stg_s10_0_knife_00_knife3-bear2.png
subject-10,1,450,1.3545069694519,car,bird,0,0450_stg_s10_0_bird_00_bird8-bottle1.png
subject-10,1,451,1.50014495849609,boat,bicycle,0,0451_stg_s10_0_bicycle_00_bicycle6-car2.png
subject-10,1,452,1.03400707244873,car,car,0,0452_stg_s10_0_car_00_car1-airplane1.png
subject-10,1,453,1.229572057724,cat,bicycle,0,0453_stg_s10_0_bicycle_00_bicycle1-bear1.png
subject-10,1,454,1.31669211387634,bird,elephant,0,0454_stg_s10_0_elephant_00_elephant4-car3.png
subject-10,1,455,1.257896900177,boat,elephant,0,0455_stg_s10_0_elephant_00_elephant1-airplane2.png
subject-10,1,456,1.18042516708374,cat,chair,0,0456_stg_s10_0_chair_00_chair8-bear1.png
subject-10,1,457,1.13787508010864,knife,airplane,0,0457_stg_s10_0_airplane_00_airplane4-airplane1.png
subject-10,1,458,0.735666990280151,boat,knife,0,0458_stg_s10_0_knife_00_knife6-chair3.png
subject-10,1,459,1.30769991874695,bear,bear,0,0459_stg_s10_0_bear_00_bear8-bottle1.png
subject-10,1,460,1.10281991958618,car,dog,0,0460_stg_s10_0_dog_00_dog5-knife2.png
subject-10,1,461,1.50029802322388,clock,cat,0,0461_stg_s10_0_cat_00_cat10-bottle1.png
subject-10,1,462,NaN,na,dog,0,0462_stg_s10_0_dog_00_dog1-airplane3.png
subject-10,1,463,0.891245126724243,car,truck,0,0463_stg_s10_0_truck_00_truck5-bird2.png
subject-10,1,464,0.71038818359375,boat,bottle,0,0464_stg_s10_0_bottle_00_bottle3-boat3.png
subject-10,1,465,1.13659381866455,elephant,elephant,0,0465_stg_s10_0_elephant_00_elephant2-elephant3.png
subject-10,1,466,1.2886209487915,cat,chair,0,0466_stg_s10_0_chair_00_chair1-bear1.png
subject-10,1,467,NaN,na,bear,0,0467_stg_s10_0_bear_00_bear7-bear2.png
subject-10,1,468,1.07993698120117,truck,truck,0,0468_stg_s10_0_truck_00_truck1-cat1.png
subject-10,1,469,0.823746919631958,cat,dog,0,0469_stg_s10_0_dog_00_dog6-cat1.png
subject-10,1,470,0.867318868637085,knife,boat,0,0470_stg_s10_0_boat_00_boat1-bicycle2.png
subject-10,1,471,1.50003790855408,car,bear,0,0471_stg_s10_0_bear_00_bear4-boat2.png
subject-10,1,472,1.2048020362854,chair,bottle,0,0472_stg_s10_0_bottle_00_bottle10-clock2.png
subject-10,1,473,1.41686391830444,knife,oven,0,0473_stg_s10_0_oven_00_oven2-boat3.png
subject-10,1,474,1.42074298858643,boat,clock,0,0474_stg_s10_0_clock_00_clock9-cat1.png
subject-10,1,475,1.50004100799561,elephant,bottle,0,0475_stg_s10_0_bottle_00_bottle6-bear2.png
subject-10,1,476,1.02995014190674,cat,truck,0,0476_stg_s10_0_truck_00_truck5-cat3.png
subject-10,1,477,1.4963960647583,bear,car,0,0477_stg_s10_0_car_00_car4-bear3.png
subject-10,1,478,0.809707164764404,elephant,bottle,0,0478_stg_s10_0_bottle_00_bottle5-elephant1.png
subject-10,1,479,0.889785051345825,clock,bottle,0,0479_stg_s10_0_bottle_00_bottle1-keyboard3.png
subject-10,1,480,0.979462146759033,boat,bear,0,0480_stg_s10_0_bear_00_bear4-oven2.png
subject-10,1,481,1.13493514060974,bicycle,boat,0,0481_stg_s10_0_boat_00_boat9-keyboard2.png
subject-10,1,482,1.32491898536682,knife,airplane,0,0482_stg_s10_0_airplane_00_airplane8-clock2.png
subject-10,1,483,1.16893815994263,car,bicycle,0,0483_stg_s10_0_bicycle_00_bicycle5-car3.png
subject-10,1,484,1.50043916702271,dog,elephant,0,0484_stg_s10_0_elephant_00_elephant6-car3.png
subject-10,1,485,0.88484001159668,knife,knife,0,0485_stg_s10_0_knife_00_knife6-airplane1.png
subject-10,1,486,1.01238703727722,elephant,bottle,0,0486_stg_s10_0_bottle_00_bottle9-elephant2.png
subject-10,1,487,1.50029301643372,car,elephant,0,0487_stg_s10_0_elephant_00_elephant4-oven1.png
subject-10,1,488,0.968924045562744,cat,elephant,0,0488_stg_s10_0_elephant_00_elephant2-cat1.png
subject-10,1,489,NaN,na,oven,0,0489_stg_s10_0_oven_00_oven5-airplane1.png
subject-10,1,490,1.0078489780426,cat,cat,0,0490_stg_s10_0_cat_00_cat2-truck3.png
subject-10,1,491,1.16653895378113,oven,keyboard,0,0491_stg_s10_0_keyboard_00_keyboard5-keyboard1.png
subject-10,1,492,1.30922508239746,knife,chair,0,0492_stg_s10_0_chair_00_chair2-knife1.png
subject-10,1,493,0.89844012260437,boat,knife,0,0493_stg_s10_0_knife_00_knife1-truck2.png
subject-10,1,494,1.05678081512451,car,oven,0,0494_stg_s10_0_oven_00_oven1-cat1.png
subject-10,1,495,1.03042411804199,oven,keyboard,0,0495_stg_s10_0_keyboard_00_keyboard8-truck3.png
subject-10,1,496,0.836871147155762,boat,keyboard,0,0496_stg_s10_0_keyboard_00_keyboard4-cat2.png
subject-10,1,497,0.840342998504639,car,car,0,0497_stg_s10_0_car_00_car4-car2.png
subject-10,1,498,0.919996023178101,cat,bear,0,0498_stg_s10_0_bear_00_bear3-dog3.png
subject-10,1,499,1.5003559589386,elephant,car,0,0499_stg_s10_0_car_00_car5-bear3.png
subject-10,1,500,0.967721939086914,oven,bird,0,0500_stg_s10_0_bird_00_bird1-bicycle2.png
subject-10,1,501,1.32344698905945,clock,boat,0,0501_stg_s10_0_boat_00_boat7-bottle1.png
subject-10,1,502,1.47298979759216,car,oven,0,0502_stg_s10_0_oven_00_oven6-truck1.png
subject-10,1,503,1.19589495658875,boat,dog,0,0503_stg_s10_0_dog_00_dog5-truck2.png
subject-10,1,504,1.17768907546997,clock,bird,0,0504_stg_s10_0_bird_00_bird5-bicycle1.png
subject-10,1,505,0.981841087341309,boat,keyboard,0,0505_stg_s10_0_keyboard_00_keyboard3-bird3.png
subject-10,1,506,1.22286581993103,car,bicycle,0,0506_stg_s10_0_bicycle_00_bicycle4-truck3.png
subject-10,1,507,NaN,na,knife,0,0507_stg_s10_0_knife_00_knife6-bottle3.png
subject-10,1,508,0.745132923126221,clock,car,0,0508_stg_s10_0_car_00_car4-bird1.png
subject-10,1,509,0.949193954467773,bottle,bottle,0,0509_stg_s10_0_bottle_00_bottle1-cat3.png
subject-10,1,510,0.944507122039795,keyboard,chair,0,0510_stg_s10_0_chair_00_chair9-bear1.png
subject-10,1,511,1.13273787498474,truck,cat,0,0511_stg_s10_0_cat_00_cat9-truck1.png
subject-10,1,512,0.69241189956665,elephant,elephant,0,0512_stg_s10_0_elephant_00_elephant10-bear1.png
subject-10,1,513,0.927411079406738,elephant,elephant,0,0513_stg_s10_0_elephant_00_elephant7-knife2.png
subject-10,1,514,0.947200059890747,car,knife,0,0514_stg_s10_0_knife_00_knife8-boat1.png
subject-10,1,515,0.881085157394409,boat,chair,0,0515_stg_s10_0_chair_00_chair5-truck3.png
subject-10,1,516,1.10772299766541,bicycle,dog,0,0516_stg_s10_0_dog_00_dog5-car3.png
subject-10,1,517,1.10432004928589,boat,cat,0,0517_stg_s10_0_cat_00_cat4-bird2.png
subject-10,1,518,0.677458047866821,clock,keyboard,0,0518_stg_s10_0_keyboard_00_keyboard6-bicycle1.png
subject-10,1,519,1.34339785575867,knife,elephant,0,0519_stg_s10_0_elephant_00_elephant3-keyboard2.png
subject-10,1,520,1.14702391624451,airplane,boat,0,0520_stg_s10_0_boat_00_boat4-bicycle3.png
subject-10,1,521,0.693547964096069,boat,airplane,0,0521_stg_s10_0_airplane_00_airplane9-truck1.png
subject-10,1,522,1.31119012832642,cat,airplane,0,0522_stg_s10_0_airplane_00_airplane3-clock1.png
subject-10,1,523,1.01755714416504,boat,boat,0,0523_stg_s10_0_boat_00_boat1-bird3.png
subject-10,1,524,1.07955002784729,car,bicycle,0,0524_stg_s10_0_bicycle_00_bicycle1-truck1.png
subject-10,1,525,1.02323603630066,cat,bird,0,0525_stg_s10_0_bird_00_bird9-chair1.png
subject-10,1,526,0.773213148117065,boat,boat,0,0526_stg_s10_0_boat_00_boat7-keyboard3.png
subject-10,1,527,0.985016107559204,truck,dog,0,0527_stg_s10_0_dog_00_dog3-knife3.png
subject-10,1,528,0.629256010055542,elephant,truck,0,0528_stg_s10_0_truck_00_truck7-elephant2.png
subject-10,1,529,1.0118420124054,dog,bear,0,0529_stg_s10_0_bear_00_bear3-keyboard2.png
subject-10,1,530,1.09943389892578,clock,cat,0,0530_stg_s10_0_cat_00_cat2-elephant1.png
subject-10,1,531,1.08102107048035,keyboard,keyboard,0,0531_stg_s10_0_keyboard_00_keyboard9-boat2.png
subject-10,1,532,1.00885701179504,bottle,airplane,0,0532_stg_s10_0_airplane_00_airplane3-airplane2.png
subject-10,1,533,1.50013089179993,truck,truck,0,0533_stg_s10_0_truck_00_truck6-boat2.png
subject-10,1,534,1.30005097389221,bird,cat,0,0534_stg_s10_0_cat_00_cat8-bear1.png
subject-10,1,535,0.912646055221558,bicycle,bicycle,0,0535_stg_s10_0_bicycle_00_bicycle4-boat1.png
subject-10,1,536,0.81876802444458,oven,elephant,0,0536_stg_s10_0_elephant_00_elephant4-chair3.png
subject-10,1,537,1.2066547870636,clock,cat,0,0537_stg_s10_0_cat_00_cat9-knife2.png
subject-10,1,538,0.934796810150146,boat,bottle,0,0538_stg_s10_0_bottle_00_bottle8-bottle3.png
subject-10,1,539,0.908335208892822,car,elephant,0,0539_stg_s10_0_elephant_00_elephant7-bottle3.png
subject-10,1,540,0.961270093917847,car,airplane,0,0540_stg_s10_0_airplane_00_airplane5-boat3.png
subject-10,1,541,1.44149398803711,elephant,clock,0,0541_stg_s10_0_clock_00_clock3-elephant3.png
subject-10,1,542,1.41518402099609,truck,bird,0,0542_stg_s10_0_bird_00_bird7-bird2.png
subject-10,1,543,0.897020816802979,elephant,boat,0,0543_stg_s10_0_boat_00_boat4-elephant2.png
subject-10,1,544,0.884509086608887,car,cat,0,0544_stg_s10_0_cat_00_cat9-boat2.png
subject-10,1,545,1.29574418067932,bottle,airplane,0,0545_stg_s10_0_airplane_00_airplane1-bicycle2.png
subject-10,1,546,1.3850998878479,car,bicycle,0,0546_stg_s10_0_bicycle_00_bicycle2-car2.png
subject-10,1,547,0.836645841598511,airplane,oven,0,0547_stg_s10_0_oven_00_oven6-bear2.png
subject-10,1,548,0.943146944046021,knife,oven,0,0548_stg_s10_0_oven_00_oven3-truck1.png
subject-10,1,549,1.10915088653564,car,car,0,0549_stg_s10_0_car_00_car9-keyboard2.png
subject-10,1,550,0.875241041183472,elephant,car,0,0550_stg_s10_0_car_00_car7-elephant3.png
subject-10,1,551,1.08762097358704,car,chair,0,0551_stg_s10_0_chair_00_chair1-truck3.png
subject-10,1,552,0.807200193405151,boat,keyboard,0,0552_stg_s10_0_keyboard_00_keyboard8-airplane2.png
subject-10,1,553,0.940497875213623,bottle,bottle,0,0553_stg_s10_0_bottle_00_bottle6-bicycle3.png
subject-10,1,554,1.1520369052887,boat,bird,0,0554_stg_s10_0_bird_00_bird6-truck2.png
subject-10,1,555,1.48580193519592,bear,elephant,0,0555_stg_s10_0_elephant_00_elephant8-oven3.png
subject-10,1,556,1.27628397941589,dog,bicycle,0,0556_stg_s10_0_bicycle_00_bicycle5-keyboard3.png
subject-10,1,557,0.808264017105103,oven,elephant,0,0557_stg_s10_0_elephant_00_elephant1-oven2.png
subject-10,1,558,0.941671848297119,bottle,chair,0,0558_stg_s10_0_chair_00_chair10-bird3.png
subject-10,1,559,1.29727101325989,car,bear,0,0559_stg_s10_0_bear_00_bear4-car3.png
subject-10,1,560,1.50029706954956,dog,knife,0,0560_stg_s10_0_knife_00_knife2-cat3.png
subject-10,1,561,0.853893995285034,elephant,bear,0,0561_stg_s10_0_bear_00_bear2-elephant1.png
subject-10,1,562,1.30285286903381,truck,airplane,0,0562_stg_s10_0_airplane_00_airplane9-airplane2.png
subject-10,1,563,1.01479601860046,knife,boat,0,0563_stg_s10_0_boat_00_boat8-bird2.png
subject-10,1,564,0.93169093132019,car,knife,0,0564_stg_s10_0_knife_00_knife6-clock2.png
subject-10,1,565,1.18002986907959,truck,truck,0,0565_stg_s10_0_truck_00_truck7-chair2.png
subject-10,1,566,1.47606801986694,cat,elephant,0,0566_stg_s10_0_elephant_00_elephant2-keyboard3.png
subject-10,1,567,1.50033712387085,clock,chair,0,0567_stg_s10_0_chair_00_chair7-clock3.png
subject-10,1,568,0.966868877410889,car,bird,0,0568_stg_s10_0_bird_00_bird7-bottle1.png
subject-10,1,569,1.12515902519226,car,clock,0,0569_stg_s10_0_clock_00_clock6-car2.png
subject-10,1,570,1.19070410728455,knife,boat,0,0570_stg_s10_0_boat_00_boat5-airplane1.png
subject-10,1,571,1.19557499885559,dog,chair,0,0571_stg_s10_0_chair_00_chair3-dog2.png
subject-10,1,572,1.03119397163391,elephant,clock,0,0572_stg_s10_0_clock_00_clock4-elephant2.png
subject-10,1,573,0.881408929824829,boat,truck,0,0573_stg_s10_0_truck_00_truck4-oven2.png
subject-10,1,574,1.07704091072083,airplane,boat,0,0574_stg_s10_0_boat_00_boat6-cat1.png
subject-10,1,575,1.47221088409424,knife,car,0,0575_stg_s10_0_car_00_car9-bicycle2.png
subject-10,1,576,0.970837116241455,boat,bicycle,0,0576_stg_s10_0_bicycle_00_bicycle9-airplane2.png
subject-10,1,577,1.0830979347229,car,chair,0,0577_stg_s10_0_chair_00_chair5-bottle3.png
subject-10,1,578,1.04874300956726,bear,dog,0,0578_stg_s10_0_dog_00_dog4-oven1.png
subject-10,1,579,1.50020098686218,knife,knife,0,0579_stg_s10_0_knife_00_knife8-cat2.png
subject-10,1,580,1.09712600708008,chair,bear,0,0580_stg_s10_0_bear_00_bear10-clock1.png
subject-10,1,581,1.01688098907471,knife,bird,0,0581_stg_s10_0_bird_00_bird4-bicycle2.png
subject-10,1,582,0.942959785461426,car,bear,0,0582_stg_s10_0_bear_00_bear3-car2.png
subject-10,1,583,0.825119972229004,boat,clock,0,0583_stg_s10_0_clock_00_clock10-bird3.png
subject-10,1,584,1.04280185699463,boat,dog,0,0584_stg_s10_0_dog_00_dog10-truck2.png
subject-10,1,585,1.13316416740417,car,clock,0,0585_stg_s10_0_clock_00_clock5-airplane1.png
subject-10,1,586,1.16697788238525,dog,bear,0,0586_stg_s10_0_bear_00_bear4-knife1.png
subject-10,1,587,1.07114601135254,car,cat,0,0587_stg_s10_0_cat_00_cat4-car2.png
subject-10,1,588,0.768912076950073,boat,car,0,0588_stg_s10_0_car_00_car8-truck3.png
subject-10,1,589,1.17291307449341,bear,bird,0,0589_stg_s10_0_bird_00_bird5-dog2.png
subject-10,1,590,0.738982915878296,truck,elephant,0,0590_stg_s10_0_elephant_00_elephant7-keyboard3.png
subject-10,1,591,0.866280078887939,knife,boat,0,0591_stg_s10_0_boat_00_boat8-oven1.png
subject-10,1,592,0.736401081085205,car,clock,0,0592_stg_s10_0_clock_00_clock6-knife2.png
subject-10,1,593,1.33081603050232,boat,dog,0,0593_stg_s10_0_dog_00_dog1-knife3.png
subject-10,1,594,1.16595196723938,dog,car,0,0594_stg_s10_0_car_00_car7-bear1.png
subject-10,1,595,1.45152282714844,dog,bicycle,0,0595_stg_s10_0_bicycle_00_bicycle5-dog2.png
subject-10,1,596,1.50031995773315,dog,truck,0,0596_stg_s10_0_truck_00_truck6-cat2.png
subject-10,1,597,1.14526319503784,car,keyboard,0,0597_stg_s10_0_keyboard_00_keyboard2-bicycle3.png
subject-10,1,598,1.04862499237061,knife,bicycle,0,0598_stg_s10_0_bicycle_00_bicycle9-bird3.png
subject-10,1,599,1.22038316726685,car,bear,0,0599_stg_s10_0_bear_00_bear10-car2.png
subject-10,1,600,0.893605947494507,airplane,chair,0,0600_stg_s10_0_chair_00_chair5-keyboard2.png
subject-10,1,601,0.881134033203125,elephant,elephant,0,0601_stg_s10_0_elephant_00_elephant9-chair2.png
subject-10,1,602,1.14385414123535,truck,truck,0,0602_stg_s10_0_truck_00_truck1-car3.png
subject-10,1,603,0.872051954269409,boat,keyboard,0,0603_stg_s10_0_keyboard_00_keyboard1-bird2.png
subject-10,1,604,1.23505210876465,knife,knife,0,0604_stg_s10_0_knife_00_knife10-oven3.png
subject-10,1,605,1.02528095245361,elephant,boat,0,0605_stg_s10_0_boat_00_boat7-elephant3.png
subject-10,1,606,0.757400989532471,car,car,0,0606_stg_s10_0_car_00_car4-bottle1.png
subject-10,1,607,1.50017309188843,truck,bicycle,0,0607_stg_s10_0_bicycle_00_bicycle4-clock3.png
subject-10,1,608,1.01937890052795,elephant,boat,0,0608_stg_s10_0_boat_00_boat1-elephant3.png
subject-10,1,609,0.817114114761353,boat,boat,0,0609_stg_s10_0_boat_00_boat7-cat3.png
subject-10,1,610,1.2033531665802,keyboard,boat,0,0610_stg_s10_0_boat_00_boat9-chair2.png
subject-10,1,611,0.968991041183472,elephant,chair,0,0611_stg_s10_0_chair_00_chair6-elephant2.png
subject-10,1,612,1.04271697998047,car,airplane,0,0612_stg_s10_0_airplane_00_airplane3-cat1.png
subject-10,1,613,1.14669799804688,car,elephant,0,0613_stg_s10_0_elephant_00_elephant6-bottle2.png
subject-10,1,614,1.0365948677063,truck,bottle,0,0614_stg_s10_0_bottle_00_bottle6-dog3.png
subject-10,1,615,1.12413907051086,truck,truck,0,0615_stg_s10_0_truck_00_truck10-clock1.png
subject-10,1,616,0.882398128509521,car,keyboard,0,0616_stg_s10_0_keyboard_00_keyboard3-car2.png
subject-10,1,617,1.35410308837891,cat,clock,0,0617_stg_s10_0_clock_00_clock6-clock2.png
subject-10,1,618,0.989645004272461,car,clock,0,0618_stg_s10_0_clock_00_clock4-chair1.png
subject-10,1,619,1.43763089179993,keyboard,knife,0,0619_stg_s10_0_knife_00_knife7-chair2.png
subject-10,1,620,1.04379510879517,bottle,clock,0,0620_stg_s10_0_clock_00_clock4-boat3.png
subject-10,1,621,0.74750804901123,car,keyboard,0,0621_stg_s10_0_keyboard_00_keyboard4-truck3.png
subject-10,1,622,1.28034806251526,car,car,0,0622_stg_s10_0_car_00_car4-bicycle3.png
subject-10,1,623,1.24608492851257,truck,elephant,0,0623_stg_s10_0_elephant_00_elephant7-car3.png
subject-10,1,624,NaN,na,bird,0,0624_stg_s10_0_bird_00_bird8-boat3.png
subject-10,1,625,1.25427603721619,boat,truck,0,0625_stg_s10_0_truck_00_truck7-boat1.png
subject-10,1,626,1.25827503204346,dog,dog,0,0626_stg_s10_0_dog_00_dog8-oven3.png
subject-10,1,627,0.818173885345459,elephant,bicycle,0,0627_stg_s10_0_bicycle_00_bicycle7-elephant2.png
subject-10,1,628,1.25820589065552,truck,boat,0,0628_stg_s10_0_boat_00_boat3-cat3.png
subject-10,1,629,0.948110103607178,clock,bird,0,0629_stg_s10_0_bird_00_bird7-keyboard3.png
subject-10,1,630,0.762163877487183,boat,oven,0,0630_stg_s10_0_oven_00_oven10-airplane2.png
subject-10,1,631,0.96626091003418,oven,boat,0,0631_stg_s10_0_boat_00_boat9-airplane2.png
subject-10,1,632,1.10055303573608,oven,bicycle,0,0632_stg_s10_0_bicycle_00_bicycle10-airplane2.png
subject-10,1,633,0.675184965133667,car,airplane,0,0633_stg_s10_0_airplane_00_airplane4-car1.png
subject-10,1,634,1.18489503860474,boat,boat,0,0634_stg_s10_0_boat_00_boat4-knife2.png
subject-10,1,635,1.32676005363464,knife,bottle,0,0635_stg_s10_0_bottle_00_bottle9-keyboard1.png
subject-10,1,636,1.27028203010559,oven,car,0,0636_stg_s10_0_car_00_car6-bottle1.png
subject-10,1,637,1.38021612167358,dog,dog,0,0637_stg_s10_0_dog_00_dog8-bear3.png
subject-10,1,638,1.50007700920105,oven,bottle,0,0638_stg_s10_0_bottle_00_bottle4-truck1.png
subject-10,1,639,1.32815408706665,car,boat,0,0639_stg_s10_0_boat_00_boat8-bottle1.png
subject-10,1,640,1.12408804893494,oven,car,0,0640_stg_s10_0_car_00_car7-oven2.png
subject-10,1,641,1.25246691703796,boat,dog,0,0641_stg_s10_0_dog_00_dog9-cat1.png
subject-10,1,642,1.16960620880127,bottle,knife,0,0642_stg_s10_0_knife_00_knife9-bottle2.png
subject-10,1,643,1.500324010849,dog,keyboard,0,0643_stg_s10_0_keyboard_00_keyboard1-dog3.png
subject-10,1,644,1.17265200614929,cat,bottle,0,0644_stg_s10_0_bottle_00_bottle7-cat2.png
subject-10,1,645,NaN,na,chair,0,0645_stg_s10_0_chair_00_chair1-oven3.png
subject-10,1,646,1.12697696685791,truck,oven,0,0646_stg_s10_0_oven_00_oven6-knife3.png
subject-10,1,647,NaN,na,knife,0,0647_stg_s10_0_knife_00_knife10-dog1.png
subject-10,1,648,0.846073865890503,elephant,elephant,0,0648_stg_s10_0_elephant_00_elephant4-bicycle2.png
subject-10,1,649,1.09553098678589,truck,airplane,0,0649_stg_s10_0_airplane_00_airplane9-knife3.png
subject-10,1,650,0.999493837356567,bottle,bottle,0,0650_stg_s10_0_bottle_00_bottle1-car1.png
subject-10,1,651,1.01914405822754,boat,dog,0,0651_stg_s10_0_dog_00_dog6-truck2.png
subject-10,1,652,1.36732482910156,bicycle,bear,0,0652_stg_s10_0_bear_00_bear8-airplane1.png
subject-10,1,653,1.19514393806458,bottle,bear,0,0653_stg_s10_0_bear_00_bear6-clock1.png
subject-10,1,654,1.46718811988831,boat,keyboard,0,0654_stg_s10_0_keyboard_00_keyboard10-boat2.png
subject-10,1,655,1.17859411239624,knife,keyboard,0,0655_stg_s10_0_keyboard_00_keyboard7-car3.png
subject-10,1,656,1.18290090560913,bear,bear,0,0656_stg_s10_0_bear_00_bear7-oven3.png
subject-10,1,657,0.673221111297607,boat,boat,0,0657_stg_s10_0_boat_00_boat9-bird1.png
subject-10,1,658,1.05520296096802,elephant,boat,0,0658_stg_s10_0_boat_00_boat2-bear3.png
subject-10,1,659,0.950447082519531,car,bicycle,0,0659_stg_s10_0_bicycle_00_bicycle7-bicycle2.png
subject-10,1,660,1.09824800491333,oven,cat,0,0660_stg_s10_0_cat_00_cat7-knife2.png
subject-10,1,661,1.3645350933075,car,boat,0,0661_stg_s10_0_boat_00_boat1-car2.png
subject-10,1,662,1.45914697647095,oven,cat,0,0662_stg_s10_0_cat_00_cat1-chair2.png
subject-10,1,663,1.25530815124512,knife,bicycle,0,0663_stg_s10_0_bicycle_00_bicycle8-truck1.png
subject-10,1,664,0.944998025894165,car,truck,0,0664_stg_s10_0_truck_00_truck9-boat3.png
subject-10,1,665,0.886588096618652,cat,knife,0,0665_stg_s10_0_knife_00_knife5-cat2.png
subject-10,1,666,1.19606280326843,elephant,chair,0,0666_stg_s10_0_chair_00_chair8-elephant1.png
subject-10,1,667,1.39118504524231,cat,knife,0,0667_stg_s10_0_knife_00_knife4-knife2.png
subject-10,1,668,1.18128204345703,truck,oven,0,0668_stg_s10_0_oven_00_oven6-chair3.png
subject-10,1,669,1.46711897850037,boat,dog,0,0669_stg_s10_0_dog_00_dog4-bird1.png
subject-10,1,670,1.08901286125183,car,bicycle,0,0670_stg_s10_0_bicycle_00_bicycle9-car1.png
subject-10,1,671,1.41520094871521,airplane,airplane,0,0671_stg_s10_0_airplane_00_airplane9-car2.png
subject-10,1,672,1.08194994926453,car,boat,0,0672_stg_s10_0_boat_00_boat10-boat3.png
subject-10,1,673,NaN,na,chair,0,0673_stg_s10_0_chair_00_chair5-cat3.png
subject-10,1,674,1.50008797645569,oven,dog,0,0674_stg_s10_0_dog_00_dog8-chair3.png
subject-10,1,675,1.36846709251404,keyboard,elephant,0,0675_stg_s10_0_elephant_00_elephant2-bottle3.png
subject-10,1,676,1.50001192092896,dog,cat,0,0676_stg_s10_0_cat_00_cat6-clock3.png
subject-10,1,677,1.22440099716187,car,bird,0,0677_stg_s10_0_bird_00_bird8-chair1.png
subject-10,1,678,1.04530096054077,clock,knife,0,0678_stg_s10_0_knife_00_knife5-oven2.png
subject-10,1,679,0.995161056518555,car,chair,0,0679_stg_s10_0_chair_00_chair8-car1.png
subject-10,1,680,0.903795003890991,elephant,bicycle,0,0680_stg_s10_0_bicycle_00_bicycle5-elephant1.png
subject-10,1,681,0.961609840393066,chair,bird,0,0681_stg_s10_0_bird_00_bird4-airplane1.png
subject-10,1,682,0.736407995223999,car,airplane,0,0682_stg_s10_0_airplane_00_airplane10-car3.png
subject-10,1,683,0.918383121490479,bear,bicycle,0,0683_stg_s10_0_bicycle_00_bicycle1-chair1.png
subject-10,1,684,0.973566055297852,boat,cat,0,0684_stg_s10_0_cat_00_cat5-boat1.png
subject-10,1,685,1.50031208992004,cat,clock,0,0685_stg_s10_0_clock_00_clock7-cat2.png
subject-10,1,686,1.26804494857788,knife,knife,0,0686_stg_s10_0_knife_00_knife3-cat1.png
subject-10,1,687,1.20949220657349,car,oven,0,0687_stg_s10_0_oven_00_oven1-bird3.png
subject-10,1,688,1.3735191822052,car,clock,0,0688_stg_s10_0_clock_00_clock4-bird3.png
subject-10,1,689,1.21482396125793,clock,knife,0,0689_stg_s10_0_knife_00_knife7-bottle3.png
subject-10,1,690,1.0888249874115,cat,bear,0,0690_stg_s10_0_bear_00_bear3-bird3.png
subject-10,1,691,1.0930860042572,elephant,boat,0,0691_stg_s10_0_boat_00_boat8-elephant1.png
subject-10,1,692,0.858820915222168,car,elephant,0,0692_stg_s10_0_elephant_00_elephant3-chair1.png
subject-10,1,693,1.40630602836609,elephant,bicycle,0,0693_stg_s10_0_bicycle_00_bicycle4-chair2.png
subject-10,1,694,0.966815948486328,bottle,elephant,0,0694_stg_s10_0_elephant_00_elephant6-bird1.png
subject-10,1,695,1.0466570854187,chair,car,0,0695_stg_s10_0_car_00_car8-clock2.png
subject-10,1,696,1.18019580841064,bottle,chair,0,0696_stg_s10_0_chair_00_chair8-keyboard3.png
subject-10,1,697,0.861867189407349,boat,car,0,0697_stg_s10_0_car_00_car4-oven2.png
subject-10,1,698,1.14926409721375,chair,bicycle,0,0698_stg_s10_0_bicycle_00_bicycle1-bicycle3.png
subject-10,1,699,1.22957491874695,dog,car,0,0699_stg_s10_0_car_00_car8-bear1.png
subject-10,1,700,1.03318691253662,cat,airplane,0,0700_stg_s10_0_airplane_00_airplane10-elephant1.png
subject-10,1,701,0.768709897994995,clock,boat,0,0701_stg_s10_0_boat_00_boat2-keyboard1.png
subject-10,1,702,1.0645010471344,car,knife,0,0702_stg_s10_0_knife_00_knife8-car2.png
subject-10,1,703,1.50016498565674,truck,dog,0,0703_stg_s10_0_dog_00_dog4-truck2.png
subject-10,1,704,1.17246508598328,oven,chair,0,0704_stg_s10_0_chair_00_chair6-truck2.png
subject-10,1,705,0.959556102752686,boat,chair,0,0705_stg_s10_0_chair_00_chair4-keyboard2.png
subject-10,1,706,1.05579900741577,clock,oven,0,0706_stg_s10_0_oven_00_oven8-knife2.png
subject-10,1,707,0.659266948699951,clock,truck,0,0707_stg_s10_0_truck_00_truck7-bear2.png
subject-10,1,708,0.980355978012085,car,bird,0,0708_stg_s10_0_bird_00_bird4-clock1.png
subject-10,1,709,1.20059394836426,boat,bottle,0,0709_stg_s10_0_bottle_00_bottle5-chair1.png
subject-10,1,710,1.05007100105286,boat,chair,0,0710_stg_s10_0_chair_00_chair8-boat1.png
subject-10,1,711,1.20831704139709,boat,truck,0,0711_stg_s10_0_truck_00_truck8-bottle2.png
subject-10,1,712,1.1360878944397,clock,chair,0,0712_stg_s10_0_chair_00_chair4-oven2.png
subject-10,1,713,0.953356981277466,car,bottle,0,0713_stg_s10_0_bottle_00_bottle9-car3.png
subject-10,1,714,1.17918705940247,bicycle,car,0,0714_stg_s10_0_car_00_car5-knife2.png
subject-10,1,715,0.921075105667114,car,bottle,0,0715_stg_s10_0_bottle_00_bottle2-car2.png
subject-10,1,716,1.11923694610596,chair,airplane,0,0716_stg_s10_0_airplane_00_airplane1-elephant1.png
subject-10,1,717,1.50021886825562,dog,cat,0,0717_stg_s10_0_cat_00_cat4-truck3.png
subject-10,1,718,0.826858043670654,clock,airplane,0,0718_stg_s10_0_airplane_00_airplane5-bicycle1.png
subject-10,1,719,1.0612359046936,bicycle,bicycle,0,0719_stg_s10_0_bicycle_00_bicycle5-cat1.png
subject-10,1,720,1.4950840473175,car,elephant,0,0720_stg_s10_0_elephant_00_elephant2-airplane3.png
subject-10,1,721,1.06157398223877,truck,truck,0,0721_stg_s10_0_truck_00_truck5-truck1.png
subject-10,1,722,1.15123391151428,keyboard,keyboard,0,0722_stg_s10_0_keyboard_00_keyboard4-oven2.png
subject-10,1,723,1.36914300918579,boat,elephant,0,0723_stg_s10_0_elephant_00_elephant4-bird1.png
subject-10,1,724,0.980684041976929,clock,cat,0,0724_stg_s10_0_cat_00_cat4-knife1.png
subject-10,1,725,0.816250801086426,boat,clock,0,0725_stg_s10_0_clock_00_clock8-airplane2.png
subject-10,1,726,0.949992895126343,cat,airplane,0,0726_stg_s10_0_airplane_00_airplane10-cat2.png
subject-10,1,727,1.0819730758667,boat,cat,0,0727_stg_s10_0_cat_00_cat5-airplane2.png
subject-10,1,728,1.35643911361694,knife,clock,0,0728_stg_s10_0_clock_00_clock8-truck2.png
subject-10,1,729,1.50017619132996,chair,chair,0,0729_stg_s10_0_chair_00_chair10-bottle3.png
subject-10,1,730,0.986384868621826,car,airplane,0,0730_stg_s10_0_airplane_00_airplane7-keyboard1.png
subject-10,1,731,1.39801692962646,bear,chair,0,0731_stg_s10_0_chair_00_chair7-bottle1.png
subject-10,1,732,1.50021505355835,boat,truck,0,0732_stg_s10_0_truck_00_truck2-boat3.png
subject-10,1,733,1.46744298934937,car,bird,0,0733_stg_s10_0_bird_00_bird7-car2.png
subject-10,1,734,NaN,na,bear,0,0734_stg_s10_0_bear_00_bear3-truck3.png
subject-10,1,735,1.07164978981018,cat,cat,0,0735_stg_s10_0_cat_00_cat1-airplane1.png
subject-10,1,736,0.9669508934021,keyboard,elephant,0,0736_stg_s10_0_elephant_00_elephant2-truck2.png
subject-10,1,737,0.933133125305176,oven,oven,0,0737_stg_s10_0_oven_00_oven9-oven1.png
subject-10,1,738,0.791025161743164,cat,bird,0,0738_stg_s10_0_bird_00_bird5-cat2.png
subject-10,1,739,1.14867496490479,car,boat,0,0739_stg_s10_0_boat_00_boat5-boat3.png
subject-10,1,740,0.959962844848633,knife,keyboard,0,0740_stg_s10_0_keyboard_00_keyboard1-clock1.png
subject-10,1,741,1.11557602882385,chair,clock,0,0741_stg_s10_0_clock_00_clock7-car1.png
subject-10,1,742,0.860310077667236,boat,knife,0,0742_stg_s10_0_knife_00_knife10-chair1.png
subject-10,1,743,0.709857940673828,car,airplane,0,0743_stg_s10_0_airplane_00_airplane7-car1.png
subject-10,1,744,1.01440286636353,elephant,oven,0,0744_stg_s10_0_oven_00_oven5-elephant1.png
subject-10,1,745,0.818286895751953,cat,bottle,0,0745_stg_s10_0_bottle_00_bottle8-dog2.png
subject-10,1,746,0.853667020797729,oven,boat,0,0746_stg_s10_0_boat_00_boat3-clock3.png
subject-10,1,747,0.766058206558228,boat,bear,0,0747_stg_s10_0_bear_00_bear6-bottle3.png
subject-10,1,748,1.1454610824585,keyboard,oven,0,0748_stg_s10_0_oven_00_oven2-dog3.png
subject-10,1,749,1.28800892829895,truck,chair,0,0749_stg_s10_0_chair_00_chair2-bear2.png
subject-10,1,750,1.10772109031677,boat,bear,0,0750_stg_s10_0_bear_00_bear5-bird1.png
subject-10,1,751,1.06527400016785,car,bottle,0,0751_stg_s10_0_bottle_00_bottle5-bird3.png
subject-10,1,752,1.48340010643005,elephant,airplane,0,0752_stg_s10_0_airplane_00_airplane6-bear3.png
subject-10,1,753,1.49999785423279,boat,airplane,0,0753_stg_s10_0_airplane_00_airplane8-bird1.png
subject-10,1,754,1.14758896827698,cat,boat,0,0754_stg_s10_0_boat_00_boat6-bottle2.png
subject-10,1,755,1.13464593887329,car,airplane,0,0755_stg_s10_0_airplane_00_airplane10-boat3.png
subject-10,1,756,1.01417684555054,cat,clock,0,0756_stg_s10_0_clock_00_clock8-cat1.png
subject-10,1,757,0.88084888458252,oven,car,0,0757_stg_s10_0_car_00_car3-bird2.png
subject-10,1,758,1.00806093215942,cat,bear,0,0758_stg_s10_0_bear_00_bear2-dog1.png
subject-10,1,759,0.883455991744995,boat,bear,0,0759_stg_s10_0_bear_00_bear10-keyboard3.png
subject-10,1,760,1.02466702461243,oven,bottle,0,0760_stg_s10_0_bottle_00_bottle2-bottle3.png
subject-10,1,761,1.0127420425415,bear,airplane,0,0761_stg_s10_0_airplane_00_airplane7-bottle3.png
subject-10,1,762,1.16330504417419,truck,oven,0,0762_stg_s10_0_oven_00_oven9-bear2.png
subject-10,1,763,0.665108919143677,oven,truck,0,0763_stg_s10_0_truck_00_truck3-oven2.png
subject-10,1,764,0.961205959320068,car,car,0,0764_stg_s10_0_car_00_car7-airplane2.png
subject-10,1,765,1.03287601470947,car,knife,0,0765_stg_s10_0_knife_00_knife6-truck1.png
subject-10,1,766,1.50026798248291,boat,bird,0,0766_stg_s10_0_bird_00_bird7-boat1.png
subject-10,1,767,1.32401990890503,bird,dog,0,0767_stg_s10_0_dog_00_dog8-dog3.png
subject-10,1,768,1.09736704826355,cat,bicycle,0,0768_stg_s10_0_bicycle_00_bicycle8-bear2.png
subject-10,1,769,0.906273126602173,boat,bottle,0,0769_stg_s10_0_bottle_00_bottle2-chair3.png
subject-10,1,770,0.780179977416992,clock,oven,0,0770_stg_s10_0_oven_00_oven3-bottle3.png
subject-10,1,771,0.899886846542358,clock,bottle,0,0771_stg_s10_0_bottle_00_bottle8-bicycle1.png
subject-10,1,772,0.979674100875854,boat,cat,0,0772_stg_s10_0_cat_00_cat2-knife3.png
subject-10,1,773,1.500244140625,cat,knife,0,0773_stg_s10_0_knife_00_knife4-oven2.png
subject-10,1,774,1.15055298805237,truck,elephant,0,0774_stg_s10_0_elephant_00_elephant9-airplane2.png
subject-10,1,775,0.772133111953735,car,car,0,0775_stg_s10_0_car_00_car8-chair1.png
subject-10,1,776,0.821820974349976,clock,truck,0,0776_stg_s10_0_truck_00_truck2-car3.png
subject-10,1,777,0.901479959487915,boat,elephant,0,0777_stg_s10_0_elephant_00_elephant5-bicycle3.png
subject-10,1,778,1.01296496391296,bicycle,cat,0,0778_stg_s10_0_cat_00_cat10-bicycle1.png
subject-10,1,779,0.771371126174927,boat,truck,0,0779_stg_s10_0_truck_00_truck2-bicycle2.png
subject-10,1,780,0.815389156341553,car,bottle,0,0780_stg_s10_0_bottle_00_bottle7-truck2.png
subject-10,1,781,1.09502482414246,car,chair,0,0781_stg_s10_0_chair_00_chair10-car2.png
subject-10,1,782,1.24999690055847,keyboard,clock,0,0782_stg_s10_0_clock_00_clock9-keyboard2.png
subject-10,1,783,1.50024199485779,bird,bird,0,0783_stg_s10_0_bird_00_bird5-bear3.png
subject-10,1,784,0.754785060882568,boat,airplane,0,0784_stg_s10_0_airplane_00_airplane10-airplane1.png
subject-10,1,785,0.741796016693115,clock,bottle,0,0785_stg_s10_0_bottle_00_bottle5-keyboard2.png
subject-10,1,786,1.00931882858276,car,bicycle,0,0786_stg_s10_0_bicycle_00_bicycle8-chair2.png
subject-10,1,787,0.832327127456665,cat,clock,0,0787_stg_s10_0_clock_00_clock10-dog3.png
subject-10,1,788,1.02840995788574,oven,oven,0,0788_stg_s10_0_oven_00_oven9-airplane2.png
subject-10,1,789,1.00232005119324,truck,boat,0,0789_stg_s10_0_boat_00_boat3-dog3.png
subject-10,1,790,1.09862399101257,dog,boat,0,0790_stg_s10_0_boat_00_boat1-bear1.png
subject-10,1,791,0.865023136138916,boat,bird,0,0791_stg_s10_0_bird_00_bird6-airplane2.png
subject-10,1,792,1.33931708335876,cat,bottle,0,0792_stg_s10_0_bottle_00_bottle9-cat2.png
subject-10,1,793,1.0590968132019,elephant,elephant,0,0793_stg_s10_0_elephant_00_elephant8-elephant1.png
subject-10,1,794,1.30076789855957,bird,airplane,0,0794_stg_s10_0_airplane_00_airplane7-cat3.png
subject-10,1,795,0.658674001693726,boat,cat,0,0795_stg_s10_0_cat_00_cat1-oven1.png
subject-10,1,796,0.856803178787231,airplane,car,0,0796_stg_s10_0_car_00_car7-dog3.png
subject-10,1,797,1.45851898193359,boat,bicycle,0,0797_stg_s10_0_bicycle_00_bicycle4-keyboard3.png
subject-10,1,798,NaN,na,bear,0,0798_stg_s10_0_bear_00_bear10-truck1.png
subject-10,1,799,1.30529403686523,cat,bird,0,0799_stg_s10_0_bird_00_bird2-dog2.png
subject-10,1,800,1.12579679489136,cat,knife,0,0800_stg_s10_0_knife_00_knife3-knife1.png
subject-10,1,801,0.66979718208313,boat,knife,0,0801_stg_s10_0_knife_00_knife3-keyboard3.png
subject-10,1,802,1.02589797973633,clock,clock,0,0802_stg_s10_0_clock_00_clock7-bear2.png
subject-10,1,803,1.16726994514465,cat,knife,0,0803_stg_s10_0_knife_00_knife9-bear3.png
subject-10,1,804,0.835253953933716,cat,car,0,0804_stg_s10_0_car_00_car3-dog2.png
subject-10,1,805,1.06916093826294,car,bicycle,0,0805_stg_s10_0_bicycle_00_bicycle2-bird3.png
subject-10,1,806,0.897531986236572,boat,bicycle,0,0806_stg_s10_0_bicycle_00_bicycle6-airplane2.png
subject-10,1,807,1.03110194206238,bicycle,boat,0,0807_stg_s10_0_boat_00_boat6-bicycle2.png
subject-10,1,808,0.937314033508301,car,oven,0,0808_stg_s10_0_oven_00_oven4-chair1.png
subject-10,1,809,1.1877908706665,dog,chair,0,0809_stg_s10_0_chair_00_chair10-cat1.png
subject-10,1,810,0.929466962814331,boat,knife,0,0810_stg_s10_0_knife_00_knife8-truck3.png
subject-10,1,811,1.00322580337524,truck,bottle,0,0811_stg_s10_0_bottle_00_bottle7-oven2.png
subject-10,1,812,0.831512928009033,keyboard,bird,0,0812_stg_s10_0_bird_00_bird6-car3.png
subject-10,1,813,0.975758075714111,clock,bottle,0,0813_stg_s10_0_bottle_00_bottle7-bear1.png
subject-10,1,814,0.763853073120117,oven,cat,0,0814_stg_s10_0_cat_00_cat9-bottle2.png
subject-10,1,815,0.7451171875,clock,oven,0,0815_stg_s10_0_oven_00_oven2-truck3.png
subject-10,1,816,0.781755924224854,boat,knife,0,0816_stg_s10_0_knife_00_knife9-airplane2.png
subject-10,1,817,0.815806150436401,elephant,keyboard,0,0817_stg_s10_0_keyboard_00_keyboard3-elephant2.png
subject-10,1,818,0.865319967269897,car,knife,0,0818_stg_s10_0_knife_00_knife1-car3.png
subject-10,1,819,0.884989976882935,oven,bicycle,0,0819_stg_s10_0_bicycle_00_bicycle2-knife2.png
subject-10,1,820,0.805114984512329,cat,truck,0,0820_stg_s10_0_truck_00_truck3-dog3.png
subject-10,1,821,0.878257036209106,boat,bottle,0,0821_stg_s10_0_bottle_00_bottle5-boat1.png
subject-10,1,822,1.12866306304932,clock,car,0,0822_stg_s10_0_car_00_car7-clock1.png
subject-10,1,823,0.693889856338501,boat,chair,0,0823_stg_s10_0_chair_00_chair1-airplane2.png
subject-10,1,824,0.868217945098877,car,bottle,0,0824_stg_s10_0_bottle_00_bottle10-car1.png
subject-10,1,825,0.880561113357544,dog,boat,0,0825_stg_s10_0_boat_00_boat9-dog2.png
subject-10,1,826,0.691241979598999,boat,bird,0,0826_stg_s10_0_bird_00_bird2-airplane3.png
subject-10,1,827,0.954939842224121,clock,chair,0,0827_stg_s10_0_chair_00_chair6-bird2.png
subject-10,1,828,0.707984924316406,boat,airplane,0,0828_stg_s10_0_airplane_00_airplane8-oven2.png
subject-10,1,829,0.927860021591187,bicycle,truck,0,0829_stg_s10_0_truck_00_truck2-bottle3.png
subject-10,1,830,1.4539258480072,cat,bird,0,0830_stg_s10_0_bird_00_bird3-cat1.png
subject-10,1,831,1.32003402709961,car,elephant,0,0831_stg_s10_0_elephant_00_elephant1-car3.png
subject-10,1,832,0.771271944046021,boat,bicycle,0,0832_stg_s10_0_bicycle_00_bicycle3-bird1.png
subject-10,1,833,1.32679104804993,clock,bird,0,0833_stg_s10_0_bird_00_bird8-elephant1.png
subject-10,1,834,1.03838992118835,car,cat,0,0834_stg_s10_0_cat_00_cat1-car2.png
subject-10,1,835,1.32017183303833,knife,boat,0,0835_stg_s10_0_boat_00_boat6-clock2.png
subject-10,1,836,1.10783791542053,bicycle,oven,0,0836_stg_s10_0_oven_00_oven9-boat2.png
subject-10,1,837,0.959728002548218,boat,boat,0,0837_stg_s10_0_boat_00_boat4-bird1.png
subject-10,1,838,1.11715507507324,oven,dog,0,0838_stg_s10_0_dog_00_dog9-chair2.png
subject-10,1,839,1.34307909011841,oven,oven,0,0839_stg_s10_0_oven_00_oven4-knife2.png
subject-10,1,840,1.07418203353882,bottle,bottle,0,0840_stg_s10_0_bottle_00_bottle9-oven2.png
subject-10,1,841,0.894266128540039,bicycle,knife,0,0841_stg_s10_0_knife_00_knife3-clock2.png
subject-10,1,842,1.23623418807983,dog,cat,0,0842_stg_s10_0_cat_00_cat1-cat3.png
subject-10,1,843,0.747220993041992,boat,boat,0,0843_stg_s10_0_boat_00_boat5-knife2.png
subject-10,1,844,0.989022970199585,car,knife,0,0844_stg_s10_0_knife_00_knife7-car2.png
subject-10,1,845,1.19315505027771,bicycle,knife,0,0845_stg_s10_0_knife_00_knife7-boat3.png
subject-10,1,846,1.06664395332336,clock,bottle,0,0846_stg_s10_0_bottle_00_bottle9-bicycle1.png
subject-10,1,847,1.04896092414856,boat,boat,0,0847_stg_s10_0_boat_00_boat6-bear1.png
subject-10,1,848,1.38198900222778,oven,boat,0,0848_stg_s10_0_boat_00_boat1-chair3.png
subject-10,1,849,0.848443984985352,car,airplane,0,0849_stg_s10_0_airplane_00_airplane4-truck2.png
subject-10,1,850,1.39866805076599,truck,bicycle,0,0850_stg_s10_0_bicycle_00_bicycle4-cat1.png
subject-10,1,851,1.28050708770752,knife,oven,0,0851_stg_s10_0_oven_00_oven4-bicycle2.png
subject-10,1,852,1.22658181190491,boat,cat,0,0852_stg_s10_0_cat_00_cat1-boat1.png
subject-10,1,853,NaN,na,dog,0,0853_stg_s10_0_dog_00_dog9-airplane3.png
subject-10,1,854,1.10339784622192,clock,elephant,0,0854_stg_s10_0_elephant_00_elephant5-truck1.png
subject-10,1,855,1.04521894454956,knife,bicycle,0,0855_stg_s10_0_bicycle_00_bicycle7-oven1.png
subject-10,1,856,0.773432016372681,boat,keyboard,0,0856_stg_s10_0_keyboard_00_keyboard10-oven3.png
subject-10,1,857,0.992692947387695,clock,elephant,0,0857_stg_s10_0_elephant_00_elephant8-airplane3.png
subject-10,1,858,1.42678093910217,bird,bicycle,0,0858_stg_s10_0_bicycle_00_bicycle10-dog3.png
subject-10,1,859,1.06223011016846,clock,oven,0,0859_stg_s10_0_oven_00_oven4-truck3.png
subject-10,1,860,1.11215710639954,boat,airplane,0,0860_stg_s10_0_airplane_00_airplane5-bear2.png
subject-10,1,861,1.28552198410034,cat,truck,0,0861_stg_s10_0_truck_00_truck8-elephant1.png
subject-10,1,862,0.743414878845215,clock,clock,0,0862_stg_s10_0_clock_00_clock2-bicycle1.png
subject-10,1,863,1.03958797454834,boat,elephant,0,0863_stg_s10_0_elephant_00_elephant9-dog3.png
subject-10,1,864,1.25129795074463,bicycle,clock,0,0864_stg_s10_0_clock_00_clock1-truck3.png
subject-10,1,865,0.925136089324951,car,elephant,0,0865_stg_s10_0_elephant_00_elephant8-truck3.png
subject-10,1,866,0.807080984115601,boat,truck,0,0866_stg_s10_0_truck_00_truck3-knife2.png
subject-10,1,867,0.765398979187012,clock,airplane,0,0867_stg_s10_0_airplane_00_airplane9-boat1.png
subject-10,1,868,0.852499961853027,airplane,cat,0,0868_stg_s10_0_cat_00_cat7-boat3.png
subject-10,1,869,1.1945641040802,elephant,boat,0,0869_stg_s10_0_boat_00_boat6-knife2.png
subject-10,1,870,1.33886194229126,boat,chair,0,0870_stg_s10_0_chair_00_chair2-keyboard2.png
subject-10,1,871,1.38038992881775,knife,oven,0,0871_stg_s10_0_oven_00_oven2-oven3.png
subject-10,1,872,1.32242298126221,boat,cat,0,0872_stg_s10_0_cat_00_cat9-cat3.png
subject-10,1,873,1.50021600723267,cat,boat,0,0873_stg_s10_0_boat_00_boat4-dog2.png
subject-10,1,874,1.08725810050964,knife,bicycle,0,0874_stg_s10_0_bicycle_00_bicycle3-oven3.png
subject-10,1,875,1.04459309577942,boat,chair,0,0875_stg_s10_0_chair_00_chair8-oven1.png
subject-10,1,876,0.924354076385498,clock,elephant,0,0876_stg_s10_0_elephant_00_elephant5-chair3.png
subject-10,1,877,0.651701927185059,clock,cat,0,0877_stg_s10_0_cat_00_cat4-chair2.png
subject-10,1,878,1.04763293266296,elephant,bear,0,0878_stg_s10_0_bear_00_bear2-knife2.png
subject-10,1,879,1.18882298469543,car,dog,0,0879_stg_s10_0_dog_00_dog9-boat1.png
subject-10,1,880,0.711090087890625,boat,boat,0,0880_stg_s10_0_boat_00_boat3-chair3.png
subject-10,1,881,1.11201000213623,clock,airplane,0,0881_stg_s10_0_airplane_00_airplane5-knife1.png
subject-10,1,882,1.50003600120544,bicycle,keyboard,0,0882_stg_s10_0_keyboard_00_keyboard2-knife1.png
subject-10,1,883,0.785315036773682,elephant,dog,0,0883_stg_s10_0_dog_00_dog6-elephant2.png
subject-10,1,884,1.18056297302246,boat,elephant,0,0884_stg_s10_0_elephant_00_elephant9-boat3.png
subject-10,1,885,1.28378701210022,knife,oven,0,0885_stg_s10_0_oven_00_oven10-truck2.png
subject-10,1,886,1.13929986953735,elephant,bear,0,0886_stg_s10_0_bear_00_bear8-elephant2.png
subject-10,1,887,1.22956204414368,car,bear,0,0887_stg_s10_0_bear_00_bear3-airplane1.png
subject-10,1,888,0.672842979431152,boat,cat,0,0888_stg_s10_0_cat_00_cat1-keyboard3.png
subject-10,1,889,1.50023889541626,airplane,bottle,0,0889_stg_s10_0_bottle_00_bottle6-bottle3.png
subject-10,1,890,1.14098405838013,boat,clock,0,0890_stg_s10_0_clock_00_clock8-boat1.png
subject-10,1,891,0.976786851882935,keyboard,bird,0,0891_stg_s10_0_bird_00_bird3-bird2.png
subject-10,1,892,0.880663871765137,clock,bicycle,0,0892_stg_s10_0_bicycle_00_bicycle9-knife3.png
subject-10,1,893,0.784365892410278,car,knife,0,0893_stg_s10_0_knife_00_knife6-boat3.png
subject-10,1,894,1.18815088272095,airplane,oven,0,0894_stg_s10_0_oven_00_oven9-chair1.png
subject-10,1,895,1.35984086990356,bicycle,bear,0,0895_stg_s10_0_bear_00_bear5-oven3.png
subject-10,1,896,1.13344407081604,cat,cat,0,0896_stg_s10_0_cat_00_cat2-car3.png
subject-10,1,897,1.18342709541321,dog,keyboard,0,0897_stg_s10_0_keyboard_00_keyboard8-dog3.png
subject-10,1,898,0.795078039169312,cat,bear,0,0898_stg_s10_0_bear_00_bear3-cat1.png
subject-10,1,899,0.909604787826538,bear,boat,0,0899_stg_s10_0_boat_00_boat9-cat3.png
subject-10,1,900,0.838065147399902,boat,car,0,0900_stg_s10_0_car_00_car5-oven2.png
subject-10,1,901,1.47719192504883,bicycle,airplane,0,0901_stg_s10_0_airplane_00_airplane1-chair2.png
subject-10,1,902,1.22149085998535,car,car,0,0902_stg_s10_0_car_00_car2-chair1.png
subject-10,1,903,1.30368709564209,cat,bear,0,0903_stg_s10_0_bear_00_bear6-bird2.png
subject-10,1,904,1.05264091491699,elephant,car,0,0904_stg_s10_0_car_00_car6-elephant3.png
subject-10,1,905,0.994178056716919,boat,airplane,0,0905_stg_s10_0_airplane_00_airplane3-chair3.png
subject-10,1,906,1.33666300773621,bicycle,knife,0,0906_stg_s10_0_knife_00_knife1-elephant1.png
subject-10,1,907,1.31031703948975,boat,truck,0,0907_stg_s10_0_truck_00_truck5-airplane2.png
subject-10,1,908,0.732440948486328,elephant,bear,0,0908_stg_s10_0_bear_00_bear4-elephant2.png
subject-10,1,909,0.896087884902954,car,boat,0,0909_stg_s10_0_boat_00_boat7-boat2.png
subject-10,1,910,1.00233101844788,clock,car,0,0910_stg_s10_0_car_00_car3-truck1.png
subject-10,1,911,1.15285706520081,car,dog,0,0911_stg_s10_0_dog_00_dog10-bottle1.png
subject-10,1,912,1.19735813140869,truck,clock,0,0912_stg_s10_0_clock_00_clock7-bottle2.png
subject-10,1,913,0.903326988220215,car,truck,0,0913_stg_s10_0_truck_00_truck9-bottle2.png
subject-10,1,914,1.0372838973999,cat,airplane,0,0914_stg_s10_0_airplane_00_airplane4-dog2.png
subject-10,1,915,1.47829413414001,clock,bicycle,0,0915_stg_s10_0_bicycle_00_bicycle2-bicycle1.png
subject-10,1,916,1.16036701202393,bicycle,knife,0,0916_stg_s10_0_knife_00_knife5-knife3.png
subject-10,1,917,1.4835410118103,knife,oven,0,0917_stg_s10_0_oven_00_oven2-bird2.png
subject-10,1,918,1.4124231338501,boat,bear,0,0918_stg_s10_0_bear_00_bear4-truck3.png
subject-10,1,919,1.26390194892883,boat,dog,0,0919_stg_s10_0_dog_00_dog2-airplane2.png
subject-10,1,920,1.32156801223755,airplane,keyboard,0,0920_stg_s10_0_keyboard_00_keyboard5-bird3.png
subject-10,1,921,1.23376107215881,dog,airplane,0,0921_stg_s10_0_airplane_00_airplane2-bear1.png
subject-10,1,922,0.931248188018799,cat,car,0,0922_stg_s10_0_car_00_car10-dog1.png
subject-10,1,923,1.42785286903381,car,chair,0,0923_stg_s10_0_chair_00_chair8-knife2.png
subject-10,1,924,1.06381702423096,bear,bear,0,0924_stg_s10_0_bear_00_bear10-elephant1.png
subject-10,1,925,1.49999690055847,boat,bicycle,0,0925_stg_s10_0_bicycle_00_bicycle4-bottle1.png
subject-10,1,926,1.27713298797607,clock,airplane,0,0926_stg_s10_0_airplane_00_airplane4-bottle1.png
subject-10,1,927,1.06747198104858,boat,oven,0,0927_stg_s10_0_oven_00_oven7-oven1.png
subject-10,1,928,1.21662616729736,car,airplane,0,0928_stg_s10_0_airplane_00_airplane7-truck1.png
subject-10,1,929,1.0667040348053,airplane,oven,0,0929_stg_s10_0_oven_00_oven4-clock2.png
subject-10,1,930,1.22430491447449,oven,oven,0,0930_stg_s10_0_oven_00_oven2-car1.png
subject-10,1,931,1.50020003318787,airplane,bear,0,0931_stg_s10_0_bear_00_bear4-keyboard3.png
subject-10,1,932,1.04788613319397,bicycle,oven,0,0932_stg_s10_0_oven_00_oven8-keyboard3.png
subject-10,1,933,1.02849984169006,car,chair,0,0933_stg_s10_0_chair_00_chair10-oven1.png
subject-10,1,934,0.923375129699707,boat,keyboard,0,0934_stg_s10_0_keyboard_00_keyboard3-boat1.png
subject-10,1,935,1.10293388366699,truck,bottle,0,0935_stg_s10_0_bottle_00_bottle6-chair2.png
subject-10,1,936,1.17744088172913,elephant,bear,0,0936_stg_s10_0_bear_00_bear10-bear2.png
subject-10,1,937,0.734717130661011,boat,car,0,0937_stg_s10_0_car_00_car3-boat1.png
subject-10,1,938,1.1082329750061,clock,clock,0,0938_stg_s10_0_clock_00_clock5-oven1.png
subject-10,1,939,1.2892279624939,oven,clock,0,0939_stg_s10_0_clock_00_clock4-airplane1.png
subject-10,1,940,0.786720991134644,cat,chair,0,0940_stg_s10_0_chair_00_chair9-dog2.png
subject-10,1,941,1.29669189453125,car,chair,0,0941_stg_s10_0_chair_00_chair3-bicycle3.png
subject-10,1,942,0.877717971801758,elephant,clock,0,0942_stg_s10_0_clock_00_clock5-elephant2.png
subject-10,1,943,0.721625804901123,car,keyboard,0,0943_stg_s10_0_keyboard_00_keyboard10-car1.png
subject-10,1,944,0.747925043106079,cat,boat,0,0944_stg_s10_0_boat_00_boat4-chair2.png
subject-10,1,945,1.16538310050964,truck,bear,0,0945_stg_s10_0_bear_00_bear5-bicycle3.png
subject-10,1,946,1.44565486907959,airplane,boat,0,0946_stg_s10_0_boat_00_boat1-oven1.png
subject-10,1,947,1.32784008979797,bicycle,bear,0,0947_stg_s10_0_bear_00_bear1-airplane3.png
subject-10,1,948,0.679688930511475,cat,truck,0,0948_stg_s10_0_truck_00_truck3-car3.png
subject-10,1,949,1.06806421279907,cat,dog,0,0949_stg_s10_0_dog_00_dog4-cat3.png
subject-10,1,950,1.29371404647827,oven,truck,0,0950_stg_s10_0_truck_00_truck2-bird2.png
subject-10,1,951,1.50017595291138,truck,cat,0,0951_stg_s10_0_cat_00_cat5-bottle1.png
subject-10,1,952,1.11250805854797,cat,keyboard,0,0952_stg_s10_0_keyboard_00_keyboard6-bear2.png
subject-10,1,953,0.824499130249023,boat,chair,0,0953_stg_s10_0_chair_00_chair8-chair3.png
subject-10,1,954,1.28247785568237,clock,airplane,0,0954_stg_s10_0_airplane_00_airplane2-bicycle1.png
subject-10,1,955,0.656594038009644,boat,dog,0,0955_stg_s10_0_dog_00_dog3-bird2.png
subject-10,1,956,1.41200184822083,car,bird,0,0956_stg_s10_0_bird_00_bird1-boat1.png
subject-10,1,957,0.908987998962402,clock,bottle,0,0957_stg_s10_0_bottle_00_bottle8-keyboard3.png
subject-10,1,958,0.652764081954956,bicycle,bicycle,0,0958_stg_s10_0_bicycle_00_bicycle6-boat2.png
subject-10,1,959,1.07114481925964,cat,cat,0,0959_stg_s10_0_cat_00_cat1-dog1.png
subject-10,1,960,0.681985139846802,boat,clock,0,0960_stg_s10_0_clock_00_clock9-chair3.png
subject-10,1,961,0.678235054016113,clock,clock,0,0961_stg_s10_0_clock_00_clock6-bicycle1.png
subject-10,1,962,0.867897033691406,bear,chair,0,0962_stg_s10_0_chair_00_chair3-airplane2.png
subject-10,1,963,0.93198299407959,car,truck,0,0963_stg_s10_0_truck_00_truck5-car1.png
subject-10,1,964,1.50000405311584,truck,chair,0,0964_stg_s10_0_chair_00_chair7-chair1.png
subject-10,1,965,1.30972814559937,clock,boat,0,0965_stg_s10_0_boat_00_boat9-boat3.png
subject-10,1,966,1.22719502449036,bicycle,truck,0,0966_stg_s10_0_truck_00_truck3-bird2.png
subject-10,1,967,1.12477588653564,car,elephant,0,0967_stg_s10_0_elephant_00_elephant5-car1.png
subject-10,1,968,0.866644144058228,bicycle,dog,0,0968_stg_s10_0_dog_00_dog4-bicycle1.png
subject-10,1,969,0.924682140350342,boat,car,0,0969_stg_s10_0_car_00_car9-truck3.png
subject-10,1,970,1.23373293876648,bicycle,truck,0,0970_stg_s10_0_truck_00_truck2-airplane3.png
subject-10,1,971,1.14502215385437,bottle,keyboard,0,0971_stg_s10_0_keyboard_00_keyboard1-elephant3.png
subject-10,1,972,0.940528869628906,boat,bicycle,0,0972_stg_s10_0_bicycle_00_bicycle1-airplane2.png
subject-10,1,973,1.23675203323364,dog,airplane,0,0973_stg_s10_0_airplane_00_airplane6-knife1.png
subject-10,1,974,0.910439014434814,bear,clock,0,0974_stg_s10_0_clock_00_clock6-bottle1.png
subject-10,1,975,1.01396322250366,cat,bear,0,0975_stg_s10_0_bear_00_bear10-cat2.png
subject-10,1,976,0.850407838821411,boat,knife,0,0976_stg_s10_0_knife_00_knife6-oven3.png
subject-10,1,977,NaN,na,knife,0,0977_stg_s10_0_knife_00_knife8-bicycle1.png
subject-10,1,978,1.20413088798523,bear,bear,0,0978_stg_s10_0_bear_00_bear2-bird3.png
subject-10,1,979,1.05412602424622,bird,elephant,0,0979_stg_s10_0_elephant_00_elephant6-truck3.png
subject-10,1,980,0.881822109222412,cat,bicycle,0,0980_stg_s10_0_bicycle_00_bicycle1-dog3.png
subject-10,1,981,1.07311105728149,airplane,elephant,0,0981_stg_s10_0_elephant_00_elephant7-bird1.png
subject-10,1,982,1.50008583068848,cat,bear,0,0982_stg_s10_0_bear_00_bear7-dog3.png
subject-10,1,983,1.50043487548828,car,car,0,0983_stg_s10_0_car_00_car7-bird3.png
subject-10,1,984,1.19819784164429,car,dog,0,0984_stg_s10_0_dog_00_dog7-car2.png
subject-10,1,985,0.755626916885376,elephant,bird,0,0985_stg_s10_0_bird_00_bird1-elephant2.png
subject-10,1,986,1.50020694732666,elephant,elephant,0,0986_stg_s10_0_elephant_00_elephant9-clock3.png
subject-10,1,987,1.41683316230774,car,bottle,0,0987_stg_s10_0_bottle_00_bottle5-cat1.png
subject-10,1,988,1.21238493919373,boat,bottle,0,0988_stg_s10_0_bottle_00_bottle6-knife3.png
subject-10,1,989,1.08721995353699,cat,bear,0,0989_stg_s10_0_bear_00_bear2-cat2.png
subject-10,1,990,1.2207670211792,elephant,boat,0,0990_stg_s10_0_boat_00_boat2-bird1.png
subject-10,1,991,1.18407797813416,boat,airplane,0,0991_stg_s10_0_airplane_00_airplane5-bird2.png
subject-10,1,992,1.06668305397034,bicycle,keyboard,0,0992_stg_s10_0_keyboard_00_keyboard7-chair3.png
subject-10,1,993,1.36203718185425,knife,bird,0,0993_stg_s10_0_bird_00_bird3-oven1.png
subject-10,1,994,0.652021169662476,cat,knife,0,0994_stg_s10_0_knife_00_knife4-cat2.png
subject-10,1,995,1.21051597595215,elephant,elephant,0,0995_stg_s10_0_elephant_00_elephant10-knife3.png
subject-10,1,996,1.17410802841187,truck,car,0,0996_stg_s10_0_car_00_car6-truck3.png
subject-10,1,997,0.972999095916748,cat,chair,0,0997_stg_s10_0_chair_00_chair1-cat3.png
subject-10,1,998,1.00600695610046,car,keyboard,0,0998_stg_s10_0_keyboard_00_keyboard6-chair1.png
subject-10,1,999,1.23158717155457,clock,boat,0,0999_stg_s10_0_boat_00_boat3-bicycle2.png
subject-10,1,1000,1.25171709060669,boat,dog,0,1000_stg_s10_0_dog_00_dog3-boat1.png
subject-10,1,1001,0.995832920074463,bear,car,0,1001_stg_s10_0_car_00_car1-keyboard2.png
subject-10,1,1002,1.00812697410583,elephant,knife,0,1002_stg_s10_0_knife_00_knife10-bear3.png
subject-10,1,1003,1.14943695068359,cat,airplane,0,1003_stg_s10_0_airplane_00_airplane10-dog3.png
subject-10,1,1004,0.937504053115845,car,dog,0,1004_stg_s10_0_dog_00_dog4-bottle2.png
subject-10,1,1005,1.4120819568634,truck,bicycle,0,1005_stg_s10_0_bicycle_00_bicycle7-knife2.png
subject-10,1,1006,0.991513013839722,car,dog,0,1006_stg_s10_0_dog_00_dog7-bird3.png
subject-10,1,1007,0.797208070755005,clock,dog,0,1007_stg_s10_0_dog_00_dog3-clock1.png
subject-10,1,1008,0.926149845123291,bicycle,clock,0,1008_stg_s10_0_clock_00_clock5-clock2.png
subject-10,1,1009,0.951432943344116,car,bear,0,1009_stg_s10_0_bear_00_bear7-clock1.png
subject-10,1,1010,0.787544012069702,car,car,0,1010_stg_s10_0_car_00_car1-car2.png
subject-10,1,1011,1.02155017852783,truck,clock,0,1011_stg_s10_0_clock_00_clock8-chair2.png
subject-10,1,1012,0.665857076644897,cat,truck,0,1012_stg_s10_0_truck_00_truck1-bicycle3.png
subject-10,1,1013,0.723572969436646,elephant,cat,0,1013_stg_s10_0_cat_00_cat5-elephant2.png
subject-10,1,1014,0.948977947235107,car,bear,0,1014_stg_s10_0_bear_00_bear6-bear1.png
subject-10,1,1015,0.730949878692627,boat,bottle,0,1015_stg_s10_0_bottle_00_bottle2-knife3.png
subject-10,1,1016,1.05630087852478,keyboard,oven,0,1016_stg_s10_0_oven_00_oven5-dog3.png
subject-10,1,1017,0.938888072967529,cat,oven,0,1017_stg_s10_0_oven_00_oven7-cat1.png
subject-10,1,1018,1.03440403938293,bear,clock,0,1018_stg_s10_0_clock_00_clock10-cat1.png
subject-10,1,1019,1.01691293716431,boat,boat,0,1019_stg_s10_0_boat_00_boat9-clock1.png
subject-10,1,1020,1.42102694511414,bicycle,airplane,0,1020_stg_s10_0_airplane_00_airplane5-chair3.png
subject-10,1,1021,1.41694688796997,dog,truck,0,1021_stg_s10_0_truck_00_truck4-knife1.png
subject-10,1,1022,0.752730131149292,cat,airplane,0,1022_stg_s10_0_airplane_00_airplane10-bear3.png
subject-10,1,1023,1.10284900665283,boat,dog,0,1023_stg_s10_0_dog_00_dog10-airplane1.png
subject-10,1,1024,0.860897064208984,clock,keyboard,0,1024_stg_s10_0_keyboard_00_keyboard7-oven2.png
subject-10,1,1025,0.831086874008179,cat,bicycle,0,1025_stg_s10_0_bicycle_00_bicycle5-chair2.png
subject-10,1,1026,0.766509056091309,car,boat,0,1026_stg_s10_0_boat_00_boat6-car1.png
subject-10,1,1027,1.1464262008667,boat,dog,0,1027_stg_s10_0_dog_00_dog4-clock1.png
subject-10,1,1028,0.913295984268188,boat,boat,0,1028_stg_s10_0_boat_00_boat3-airplane2.png
subject-10,1,1029,1.02516603469849,keyboard,bottle,0,1029_stg_s10_0_bottle_00_bottle5-clock3.png
subject-10,1,1030,1.4496009349823,oven,oven,0,1030_stg_s10_0_oven_00_oven3-knife1.png
subject-10,1,1031,1.13694787025452,car,cat,0,1031_stg_s10_0_cat_00_cat10-oven2.png
subject-10,1,1032,1.02673602104187,chair,elephant,0,1032_stg_s10_0_elephant_00_elephant5-bear2.png
subject-10,1,1033,1.39106416702271,elephant,bottle,0,1033_stg_s10_0_bottle_00_bottle6-bird1.png
subject-10,1,1034,0.904627084732056,car,cat,0,1034_stg_s10_0_cat_00_cat8-car2.png
subject-10,1,1035,0.824291944503784,cat,truck,0,1035_stg_s10_0_truck_00_truck8-dog3.png
subject-10,1,1036,1.40968894958496,boat,bird,0,1036_stg_s10_0_bird_00_bird1-clock3.png
subject-10,1,1037,0.777818918228149,elephant,keyboard,0,1037_stg_s10_0_keyboard_00_keyboard2-elephant1.png
subject-10,1,1038,0.644377946853638,car,bird,0,1038_stg_s10_0_bird_00_bird9-bicycle3.png
subject-10,1,1039,0.801943778991699,car,bear,0,1039_stg_s10_0_bear_00_bear6-car2.png
subject-10,1,1040,1.33638906478882,chair,bottle,0,1040_stg_s10_0_bottle_00_bottle9-bottle1.png
subject-10,1,1041,1.01882481575012,chair,oven,0,1041_stg_s10_0_oven_00_oven3-elephant3.png
subject-10,1,1042,0.612964868545532,boat,keyboard,0,1042_stg_s10_0_keyboard_00_keyboard10-airplane3.png
subject-10,1,1043,0.930095911026001,car,airplane,0,1043_stg_s10_0_airplane_00_airplane10-truck1.png
subject-10,1,1044,1.04249501228333,boat,elephant,0,1044_stg_s10_0_elephant_00_elephant1-boat2.png
subject-10,1,1045,0.97852611541748,clock,boat,0,1045_stg_s10_0_boat_00_boat7-clock3.png
subject-10,1,1046,0.998591899871826,car,bicycle,0,1046_stg_s10_0_bicycle_00_bicycle2-bottle1.png
subject-10,1,1047,0.926831007003784,cat,boat,0,1047_stg_s10_0_boat_00_boat9-bear3.png
subject-10,1,1048,1.08967208862305,chair,chair,0,1048_stg_s10_0_chair_00_chair5-bird1.png
subject-10,1,1049,1.03184580802917,keyboard,keyboard,0,1049_stg_s10_0_keyboard_00_keyboard7-knife1.png
subject-10,1,1050,1.50023889541626,boat,bird,0,1050_stg_s10_0_bird_00_bird8-knife2.png
subject-10,1,1051,1.35488104820251,dog,knife,0,1051_stg_s10_0_knife_00_knife1-clock2.png
subject-10,1,1052,1.31856894493103,truck,bear,0,1052_stg_s10_0_bear_00_bear5-boat2.png
subject-10,1,1053,1.13056683540344,boat,dog,0,1053_stg_s10_0_dog_00_dog2-knife3.png
subject-10,1,1054,1.0883469581604,bicycle,dog,0,1054_stg_s10_0_dog_00_dog7-keyboard3.png
subject-10,1,1055,0.899495840072632,clock,bottle,0,1055_stg_s10_0_bottle_00_bottle5-airplane1.png
subject-10,1,1056,1.08796501159668,cat,cat,0,1056_stg_s10_0_cat_00_cat4-cat3.png
subject-10,1,1057,0.706995964050293,boat,bicycle,0,1057_stg_s10_0_bicycle_00_bicycle1-oven1.png
subject-10,1,1058,0.957239866256714,oven,knife,0,1058_stg_s10_0_knife_00_knife9-bird1.png
subject-10,1,1059,1.08195304870605,boat,boat,0,1059_stg_s10_0_boat_00_boat8-knife1.png
subject-10,1,1060,0.817805051803589,cat,elephant,0,1060_stg_s10_0_elephant_00_elephant3-cat2.png
subject-10,1,1061,0.944009065628052,car,chair,0,1061_stg_s10_0_chair_00_chair4-truck2.png
subject-10,1,1062,0.747656106948853,elephant,keyboard,0,1062_stg_s10_0_keyboard_00_keyboard9-elephant2.png
subject-10,1,1063,0.82926607131958,cat,car,0,1063_stg_s10_0_car_00_car1-dog2.png
subject-10,1,1064,0.811836004257202,oven,oven,0,1064_stg_s10_0_oven_00_oven3-clock3.png
subject-10,1,1065,0.907335996627808,car,bear,0,1065_stg_s10_0_bear_00_bear2-airplane1.png
subject-10,1,1066,1.17946791648865,truck,chair,0,1066_stg_s10_0_chair_00_chair5-oven2.png
subject-10,1,1067,NaN,na,chair,0,1067_stg_s10_0_chair_00_chair10-clock1.png
subject-10,1,1068,1.09486508369446,oven,chair,0,1068_stg_s10_0_chair_00_chair7-airplane1.png
subject-10,1,1069,0.939090967178345,clock,clock,0,1069_stg_s10_0_clock_00_clock10-knife3.png
subject-10,1,1070,1.07181406021118,chair,chair,0,1070_stg_s10_0_chair_00_chair9-keyboard2.png
subject-10,1,1071,1.20653414726257,cat,dog,0,1071_stg_s10_0_dog_00_dog10-bicycle1.png
subject-10,1,1072,0.801681041717529,boat,chair,0,1072_stg_s10_0_chair_00_chair7-car2.png
subject-10,1,1073,1.12956094741821,boat,truck,0,1073_stg_s10_0_truck_00_truck6-knife2.png
subject-10,1,1074,1.04199910163879,keyboard,keyboard,0,1074_stg_s10_0_keyboard_00_keyboard1-chair2.png
subject-10,1,1075,0.837116003036499,boat,boat,0,1075_stg_s10_0_boat_00_boat5-car3.png
subject-10,1,1076,1.50018882751465,truck,boat,0,1076_stg_s10_0_boat_00_boat3-car3.png
subject-10,1,1077,0.892056941986084,bottle,bottle,0,1077_stg_s10_0_bottle_00_bottle4-bicycle1.png
subject-10,1,1078,1.00314593315125,cat,bear,0,1078_stg_s10_0_bear_00_bear1-bear3.png
subject-10,1,1079,0.89156699180603,boat,dog,0,1079_stg_s10_0_dog_00_dog4-airplane3.png
subject-10,1,1080,1.00733184814453,clock,clock,0,1080_stg_s10_0_clock_00_clock10-bottle1.png
subject-10,1,1081,0.635536909103394,boat,knife,0,1081_stg_s10_0_knife_00_knife1-keyboard3.png
subject-10,1,1082,1.50039911270142,boat,bottle,0,1082_stg_s10_0_bottle_00_bottle3-bicycle3.png
subject-10,1,1083,0.986420869827271,keyboard,chair,0,1083_stg_s10_0_chair_00_chair8-clock3.png
subject-10,1,1084,0.903592109680176,oven,car,0,1084_stg_s10_0_car_00_car3-oven3.png
subject-10,1,1085,1.04484391212463,chair,chair,0,1085_stg_s10_0_chair_00_chair7-truck3.png
subject-10,1,1086,1.1957859992981,elephant,elephant,0,1086_stg_s10_0_elephant_00_elephant8-clock2.png
subject-10,1,1087,0.939321041107178,clock,clock,0,1087_stg_s10_0_clock_00_clock8-oven3.png
subject-10,1,1088,1.10311007499695,boat,knife,0,1088_stg_s10_0_knife_00_knife2-car3.png
subject-10,1,1089,0.943827867507935,keyboard,keyboard,0,1089_stg_s10_0_keyboard_00_keyboard7-clock3.png
subject-10,1,1090,1.31606602668762,car,bicycle,0,1090_stg_s10_0_bicycle_00_bicycle4-airplane1.png
subject-10,1,1091,1.35175395011902,bottle,bottle,0,1091_stg_s10_0_bottle_00_bottle6-oven3.png
subject-10,1,1092,NaN,na,elephant,0,1092_stg_s10_0_elephant_00_elephant7-dog1.png
subject-10,1,1093,1.16782999038696,cat,cat,0,1093_stg_s10_0_cat_00_cat10-bear1.png
subject-10,1,1094,1.13362789154053,car,airplane,0,1094_stg_s10_0_airplane_00_airplane7-bird3.png
subject-10,1,1095,1.07553315162659,oven,elephant,0,1095_stg_s10_0_elephant_00_elephant3-oven1.png
subject-10,1,1096,0.866247177124023,cat,car,0,1096_stg_s10_0_car_00_car2-cat3.png
subject-10,1,1097,0.931813955307007,elephant,dog,0,1097_stg_s10_0_dog_00_dog5-bear3.png
subject-10,1,1098,0.643489837646484,bicycle,bicycle,0,1098_stg_s10_0_bicycle_00_bicycle4-bicycle3.png
subject-10,1,1099,0.963796138763428,oven,chair,0,1099_stg_s10_0_chair_00_chair5-knife3.png
subject-10,1,1100,0.873056173324585,elephant,car,0,1100_stg_s10_0_car_00_car9-bird1.png
subject-10,1,1101,0.81657600402832,elephant,elephant,0,1101_stg_s10_0_elephant_00_elephant6-knife2.png
subject-10,1,1102,0.934623003005981,cat,cat,0,1102_stg_s10_0_cat_00_cat9-clock2.png
subject-10,1,1103,0.838466882705688,car,bird,0,1103_stg_s10_0_bird_00_bird8-car2.png
subject-10,1,1104,0.90470290184021,boat,bird,0,1104_stg_s10_0_bird_00_bird9-bottle3.png
subject-10,1,1105,0.976619958877563,elephant,knife,0,1105_stg_s10_0_knife_00_knife4-bear1.png
subject-10,1,1106,1.22659206390381,dog,bear,0,1106_stg_s10_0_bear_00_bear1-clock2.png
subject-10,1,1107,0.96223783493042,bear,airplane,0,1107_stg_s10_0_airplane_00_airplane8-elephant3.png
subject-10,1,1108,1.50031995773315,car,bear,0,1108_stg_s10_0_bear_00_bear10-bottle1.png
subject-10,1,1109,1.45421195030212,truck,truck,0,1109_stg_s10_0_truck_00_truck9-truck3.png
subject-10,1,1110,1.00373697280884,oven,clock,0,1110_stg_s10_0_clock_00_clock7-boat3.png
subject-10,1,1111,1.03985500335693,bicycle,knife,0,1111_stg_s10_0_knife_00_knife4-airplane3.png
